{
  "resourceType": "Bundle",
  "id": "4a8639bbad9d5774878e0d6a132ece2b65912449072a6888e2028987d5d479c4",
  "type": "transaction",
  "entry": [ {
    "fullUrl": "Patient/4a8639bbad9d5774878e0d6a132ece2b65912449072a6888e2028987d5d479c4",
    "resource": {
      "resourceType": "Patient",
      "id": "4a8639bbad9d5774878e0d6a132ece2b65912449072a6888e2028987d5d479c4",
      "meta": {
        "profile": [ "https://www.medizininformatik-initiative.de/fhir/core/modul-person/StructureDefinition/PatientPseudonymisiert" ]
      },
      "identifier": [ {
        "type": {
          "coding": [ {
            "system": "http://terminology.hl7.org/CodeSystem/v2-0203",
            "code": "MR",
            "display": "Medical record number"
          }, {
            "system": "http://terminology.hl7.org/CodeSystem/v3-ObservationValue",
            "code": "PSEUDED",
            "display": "pseudonymized"
          } ]
        },
        "system": "https://bzkf.github.io/obds-to-fhir/identifiers/patient-id",
        "value": "50"
      } ],
      "gender": "male",
      "birthDate": "1948-03-05",
      "address": [ {
        "type": "both",
        "postalCode": "30175",
        "country": "DE"
      } ]
    },
    "request": {
      "method": "PUT",
      "url": "Patient/4a8639bbad9d5774878e0d6a132ece2b65912449072a6888e2028987d5d479c4"
    }
  }, {
    "fullUrl": "Condition/17bc83a84fc6d9a7f9df24684aae287df117609026a237d1cf8d3fe73d1a6e39",
    "resource": {
      "resourceType": "Condition",
      "id": "17bc83a84fc6d9a7f9df24684aae287df117609026a237d1cf8d3fe73d1a6e39",
      "meta": {
        "profile": [ "https://www.medizininformatik-initiative.de/fhir/ext/modul-onko/StructureDefinition/mii-pr-onko-diagnose-primaertumor" ]
      },
      "extension": [ {
        "url": "https://www.medizininformatik-initiative.de/fhir/ext/modul-onko/StructureDefinition/mii-ex-onko-histology-morphology-behavior-icdo3",
        "valueCodeableConcept": {
          "coding": [ {
            "system": "http://terminology.hl7.org/CodeSystem/icd-o-3",
            "version": "31",
            "code": "8140/3"
          } ]
        }
      }, {
        "url": "http://hl7.org/fhir/StructureDefinition/condition-assertedDate",
        "valueDateTime": "2020-08-02"
      } ],
      "identifier": [ {
        "system": "https://bzkf.github.io/obds-to-fhir/identifiers/primaerdiagnose-id",
        "value": "501"
      } ],
      "verificationStatus": {
        "coding": [ {
          "system": "http://terminology.hl7.org/CodeSystem/condition-ver-status",
          "code": "confirmed"
        }, {
          "system": "https://www.medizininformatik-initiative.de/fhir/ext/modul-onko/CodeSystem/mii-cs-onko-primaertumor-diagnosesicherung",
          "code": "7"
        } ]
      },
      "code": {
        "coding": [ {
          "system": "http://fhir.de/CodeSystem/bfarm/icd-10-gm",
          "version": "2020",
          "code": "C20"
        } ]
      },
      "bodySite": [ {
        "coding": [ {
          "system": "http://terminology.hl7.org/CodeSystem/icd-o-3",
          "version": "33",
          "code": "C20.9"
        } ]
      }, {
        "coding": [ {
          "system": "https://www.medizininformatik-initiative.de/fhir/ext/modul-onko/CodeSystem/mii-cs-onko-seitenlokalisation",
          "code": "T"
        } ]
      } ],
      "subject": {
        "reference": "Patient/4a8639bbad9d5774878e0d6a132ece2b65912449072a6888e2028987d5d479c4"
      },
      "recordedDate": "2024-02-16"
    },
    "request": {
      "method": "PUT",
      "url": "Condition/17bc83a84fc6d9a7f9df24684aae287df117609026a237d1cf8d3fe73d1a6e39"
    }
  }, {
    "fullUrl": "Observation/bcd6e1b46b8ac53bb6156e6042dfab59c08efb6bb48573621810e5ba7d6e7ad0",
    "resource": {
      "resourceType": "Observation",
      "id": "bcd6e1b46b8ac53bb6156e6042dfab59c08efb6bb48573621810e5ba7d6e7ad0",
      "meta": {
        "profile": [ "https://www.medizininformatik-initiative.de/fhir/ext/modul-onko/StructureDefinition/mii-pr-onko-allgemeiner-leistungszustand-ecog" ]
      },
      "identifier": [ {
        "system": "https://bzkf.github.io/obds-to-fhir/identifiers/allgemeiner-leistungszustand-ecog-id",
        "value": "ECOG-DIA_50101"
      } ],
      "status": "final",
      "code": {
        "coding": [ {
          "system": "http://snomed.info/sct",
          "code": "423740007"
        } ]
      },
      "subject": {
        "reference": "Patient/4a8639bbad9d5774878e0d6a132ece2b65912449072a6888e2028987d5d479c4"
      },
      "focus": [ {
        "reference": "Condition/17bc83a84fc6d9a7f9df24684aae287df117609026a237d1cf8d3fe73d1a6e39"
      } ],
      "effectiveDateTime": "2020-08-02",
      "valueCodeableConcept": {
        "coding": [ {
          "system": "https://www.medizininformatik-initiative.de/fhir/ext/modul-onko/CodeSystem/mii-cs-onko-allgemeiner-leistungszustand-ecog",
          "code": "1",
          "display": "Einschränkung bei körperlicher Anstrengung, aber gehfähig; leichte körperliche Arbeit bzw. Arbeit im Sitzen (z. B. leichte Hausarbeit oder Büroarbeit) möglich (70 - 80 % nach Karnofsky)"
        } ]
      }
    },
    "request": {
      "method": "PUT",
      "url": "Observation/bcd6e1b46b8ac53bb6156e6042dfab59c08efb6bb48573621810e5ba7d6e7ad0"
    }
  }, {
    "fullUrl": "Specimen/b5addb6f659b752b5b470656e13dbac88432e01e90d09ef22c5e2c1927510397",
    "resource": {
      "resourceType": "Specimen",
      "id": "b5addb6f659b752b5b470656e13dbac88432e01e90d09ef22c5e2c1927510397",
      "meta": {
        "profile": [ "https://www.medizininformatik-initiative.de/fhir/ext/modul-onko/StructureDefinition/mii-pr-onko-specimen" ]
      },
      "identifier": [ {
        "system": "https://bzkf.github.io/obds-to-fhir/identifiers/specimen-id",
        "value": "258"
      } ],
      "accessionIdentifier": {
        "value": "E/2020/20543"
      },
      "subject": {
        "reference": "Patient/4a8639bbad9d5774878e0d6a132ece2b65912449072a6888e2028987d5d479c4"
      },
      "collection": {
        "collectedDateTime": "2020-08-02"
      }
    },
    "request": {
      "method": "PUT",
      "url": "Specimen/b5addb6f659b752b5b470656e13dbac88432e01e90d09ef22c5e2c1927510397"
    }
  }, {
    "fullUrl": "Observation/105cff8b5f5b8f5789b30b06ede08be6d6f61ee3d7f9d66410976cea405f1a65",
    "resource": {
      "resourceType": "Observation",
      "id": "105cff8b5f5b8f5789b30b06ede08be6d6f61ee3d7f9d66410976cea405f1a65",
      "meta": {
        "profile": [ "https://www.medizininformatik-initiative.de/fhir/ext/modul-onko/StructureDefinition/mii-pr-onko-histologie-icdo3" ]
      },
      "identifier": [ {
        "system": "https://bzkf.github.io/obds-to-fhir/identifiers/observation-histologie-id",
        "value": "258_ICDO3_8140/3"
      } ],
      "status": "final",
      "code": {
        "coding": [ {
          "system": "http://loinc.org",
          "code": "59847-4"
        } ]
      },
      "subject": {
        "reference": "Patient/4a8639bbad9d5774878e0d6a132ece2b65912449072a6888e2028987d5d479c4"
      },
      "focus": [ {
        "reference": "Condition/17bc83a84fc6d9a7f9df24684aae287df117609026a237d1cf8d3fe73d1a6e39"
      } ],
      "effectiveDateTime": "2020-08-02",
      "valueCodeableConcept": {
        "coding": [ {
          "system": "http://terminology.hl7.org/CodeSystem/icd-o-3",
          "version": "31",
          "code": "8140/3"
        } ],
        "text": "Adenokarzinom o.n.A."
      },
      "specimen": {
        "reference": "Specimen/b5addb6f659b752b5b470656e13dbac88432e01e90d09ef22c5e2c1927510397"
      }
    },
    "request": {
      "method": "PUT",
      "url": "Observation/105cff8b5f5b8f5789b30b06ede08be6d6f61ee3d7f9d66410976cea405f1a65"
    }
  }, {
    "fullUrl": "Observation/ea5cb1fb8734791fc1125baadb395871e85dca324a7c016bfa88a82fc897915d",
    "resource": {
      "resourceType": "Observation",
      "id": "ea5cb1fb8734791fc1125baadb395871e85dca324a7c016bfa88a82fc897915d",
      "meta": {
        "profile": [ "https://www.medizininformatik-initiative.de/fhir/ext/modul-onko/StructureDefinition/mii-pr-onko-grading" ]
      },
      "identifier": [ {
        "system": "https://bzkf.github.io/obds-to-fhir/identifiers/grading-observation-id",
        "value": "258_Grading"
      } ],
      "status": "final",
      "category": [ {
        "coding": [ {
          "system": "http://terminology.hl7.org/CodeSystem/observation-category",
          "code": "laboratory"
        } ]
      } ],
      "code": {
        "coding": [ {
          "system": "http://loinc.org",
          "code": "33732-9"
        }, {
          "system": "http://snomed.info/sct",
          "code": "371469007"
        } ]
      },
      "subject": {
        "reference": "Patient/4a8639bbad9d5774878e0d6a132ece2b65912449072a6888e2028987d5d479c4"
      },
      "focus": [ {
        "reference": "Condition/17bc83a84fc6d9a7f9df24684aae287df117609026a237d1cf8d3fe73d1a6e39"
      } ],
      "effectiveDateTime": "2020-08-02",
      "valueCodeableConcept": {
        "coding": [ {
          "system": "https://www.medizininformatik-initiative.de/fhir/ext/modul-onko/CodeSystem/mii-cs-onko-grading",
          "code": "2"
        } ]
      },
      "specimen": {
        "reference": "Specimen/b5addb6f659b752b5b470656e13dbac88432e01e90d09ef22c5e2c1927510397"
      }
    },
    "request": {
      "method": "PUT",
      "url": "Observation/ea5cb1fb8734791fc1125baadb395871e85dca324a7c016bfa88a82fc897915d"
    }
  }, {
    "fullUrl": "Observation/3b585527996dc3813fd54813c3a130df768d2e681a81ebf37579c8cb9cda7420",
    "resource": {
      "resourceType": "Observation",
      "id": "3b585527996dc3813fd54813c3a130df768d2e681a81ebf37579c8cb9cda7420",
      "meta": {
        "profile": [ "https://www.medizininformatik-initiative.de/fhir/ext/modul-onko/StructureDefinition/mii-pr-onko-tnm-t-kategorie" ]
      },
      "identifier": [ {
        "system": "245_T",
        "value": "https://bzkf.github.io/obds-to-fhir/identifiers/tnm-t-kategorie-observation-id"
      } ],
      "status": "final",
      "code": {
        "extension": [ {
          "url": "https://www.medizininformatik-initiative.de/fhir/ext/modul-onko/StructureDefinition/mii-ex-onko-tnm-cp-praefix",
          "valueCodeableConcept": {
            "coding": [ {
              "system": "https://www.uicc.org/resources/tnm",
              "code": "c"
            } ]
          }
        } ],
        "coding": [ {
          "system": "http://snomed.info/sct",
          "code": "399504009",
          "display": "cT category (observable entity)"
        } ]
      },
      "subject": {
        "reference": "Patient/4a8639bbad9d5774878e0d6a132ece2b65912449072a6888e2028987d5d479c4"
      },
      "focus": [ {
        "reference": "Condition/17bc83a84fc6d9a7f9df24684aae287df117609026a237d1cf8d3fe73d1a6e39"
      } ],
      "effectiveDateTime": "2020-08-16",
      "valueCodeableConcept": {
        "coding": [ {
          "system": "https://www.uicc.org/resources/tnm",
          "code": "3"
        } ]
      },
      "method": {
        "coding": [ {
          "system": "https://www.medizininformatik-initiative.de/fhir/ext/modul-onko/CodeSystem/mii-cs-onko-tnm-version",
          "code": "8"
        } ]
      }
    },
    "request": {
      "method": "PUT",
      "url": "Observation/3b585527996dc3813fd54813c3a130df768d2e681a81ebf37579c8cb9cda7420"
    }
  }, {
    "fullUrl": "Observation/9446aad846eec771db4dcf0e5cf47635107c512848c0acdb21c0a00f32709f3f",
    "resource": {
      "resourceType": "Observation",
      "id": "9446aad846eec771db4dcf0e5cf47635107c512848c0acdb21c0a00f32709f3f",
      "meta": {
        "profile": [ "https://www.medizininformatik-initiative.de/fhir/ext/modul-onko/StructureDefinition/mii-pr-onko-tnm-n-kategorie" ]
      },
      "identifier": [ {
        "system": "245_N",
        "value": "https://bzkf.github.io/obds-to-fhir/identifiers/tnm-n-kategorie-observation-id"
      } ],
      "status": "final",
      "code": {
        "extension": [ {
          "url": "https://www.medizininformatik-initiative.de/fhir/ext/modul-onko/StructureDefinition/mii-ex-onko-tnm-cp-praefix",
          "valueCodeableConcept": {
            "coding": [ {
              "system": "https://www.uicc.org/resources/tnm",
              "code": "c"
            } ]
          }
        } ],
        "coding": [ {
          "system": "http://snomed.info/sct",
          "code": "399534004",
          "display": "cN category (observable entity)"
        } ]
      },
      "subject": {
        "reference": "Patient/4a8639bbad9d5774878e0d6a132ece2b65912449072a6888e2028987d5d479c4"
      },
      "focus": [ {
        "reference": "Condition/17bc83a84fc6d9a7f9df24684aae287df117609026a237d1cf8d3fe73d1a6e39"
      } ],
      "effectiveDateTime": "2020-08-16",
      "valueCodeableConcept": {
        "coding": [ {
          "system": "https://www.uicc.org/resources/tnm",
          "code": "0"
        } ]
      },
      "method": {
        "coding": [ {
          "system": "https://www.medizininformatik-initiative.de/fhir/ext/modul-onko/CodeSystem/mii-cs-onko-tnm-version",
          "code": "8"
        } ]
      }
    },
    "request": {
      "method": "PUT",
      "url": "Observation/9446aad846eec771db4dcf0e5cf47635107c512848c0acdb21c0a00f32709f3f"
    }
  }, {
    "fullUrl": "Observation/a290a891a8a06b87e7eda87a49e4b453e08d0c5ac978dad72c2e92aa8847346b",
    "resource": {
      "resourceType": "Observation",
      "id": "a290a891a8a06b87e7eda87a49e4b453e08d0c5ac978dad72c2e92aa8847346b",
      "meta": {
        "profile": [ "https://www.medizininformatik-initiative.de/fhir/ext/modul-onko/StructureDefinition/mii-pr-onko-tnm-m-kategorie" ]
      },
      "identifier": [ {
        "system": "245_M",
        "value": "https://bzkf.github.io/obds-to-fhir/identifiers/tnm-m-kategorie-observation-id"
      } ],
      "status": "final",
      "code": {
        "extension": [ {
          "url": "https://www.medizininformatik-initiative.de/fhir/ext/modul-onko/StructureDefinition/mii-ex-onko-tnm-cp-praefix",
          "valueCodeableConcept": {
            "coding": [ {
              "system": "https://www.uicc.org/resources/tnm",
              "code": "c"
            } ]
          }
        } ],
        "coding": [ {
          "system": "http://snomed.info/sct",
          "code": "399387003",
          "display": "cM category (observable entity)"
        } ]
      },
      "subject": {
        "reference": "Patient/4a8639bbad9d5774878e0d6a132ece2b65912449072a6888e2028987d5d479c4"
      },
      "focus": [ {
        "reference": "Condition/17bc83a84fc6d9a7f9df24684aae287df117609026a237d1cf8d3fe73d1a6e39"
      } ],
      "effectiveDateTime": "2020-08-16",
      "valueCodeableConcept": {
        "coding": [ {
          "system": "https://www.uicc.org/resources/tnm",
          "code": "0"
        } ]
      },
      "method": {
        "coding": [ {
          "system": "https://www.medizininformatik-initiative.de/fhir/ext/modul-onko/CodeSystem/mii-cs-onko-tnm-version",
          "code": "8"
        } ]
      }
    },
    "request": {
      "method": "PUT",
      "url": "Observation/a290a891a8a06b87e7eda87a49e4b453e08d0c5ac978dad72c2e92aa8847346b"
    }
  }, {
    "fullUrl": "Observation/dbb895aa0bde0ce797445610e022d8b750949494c6cdaf0a9a2554828b4ff0dc",
    "resource": {
      "resourceType": "Observation",
      "id": "dbb895aa0bde0ce797445610e022d8b750949494c6cdaf0a9a2554828b4ff0dc",
      "meta": {
        "profile": [ "https://www.medizininformatik-initiative.de/fhir/ext/modul-onko/StructureDefinition/mii-pr-onko-tnm-klassifikation" ]
      },
      "identifier": [ {
        "system": "https://bzkf.github.io/obds-to-fhir/identifiers/tnm-grouping-observation-id",
        "value": "245"
      } ],
      "status": "final",
      "code": {
        "coding": [ {
          "system": "http://snomed.info/sct",
          "code": "399537006",
          "display": "Clinical TNM stage grouping"
        } ]
      },
      "subject": {
        "reference": "Patient/4a8639bbad9d5774878e0d6a132ece2b65912449072a6888e2028987d5d479c4"
      },
      "focus": [ {
        "reference": "Condition/17bc83a84fc6d9a7f9df24684aae287df117609026a237d1cf8d3fe73d1a6e39"
      } ],
      "effectiveDateTime": "2020-08-16",
      "valueCodeableConcept": {
        "coding": [ {
          "system": "https://www.uicc.org/resources/tnm",
          "code": "IIA",
          "display": "Stadium IIA"
        } ]
      },
      "method": {
        "coding": [ {
          "system": "https://www.medizininformatik-initiative.de/fhir/ext/modul-onko/CodeSystem/mii-cs-onko-tnm-version",
          "code": "8"
        } ]
      },
      "hasMember": [ {
        "reference": "Observation/3b585527996dc3813fd54813c3a130df768d2e681a81ebf37579c8cb9cda7420"
      }, {
        "reference": "Observation/9446aad846eec771db4dcf0e5cf47635107c512848c0acdb21c0a00f32709f3f"
      }, {
        "reference": "Observation/a290a891a8a06b87e7eda87a49e4b453e08d0c5ac978dad72c2e92aa8847346b"
      } ]
    },
    "request": {
      "method": "PUT",
      "url": "Observation/dbb895aa0bde0ce797445610e022d8b750949494c6cdaf0a9a2554828b4ff0dc"
    }
  }, {
    "fullUrl": "CarePlan/c0c3af0b20396e56b2e997a4538f88c4f4953a97380c65490e5130ecb7b82ef1",
    "resource": {
      "resourceType": "CarePlan",
      "id": "c0c3af0b20396e56b2e997a4538f88c4f4953a97380c65490e5130ecb7b82ef1",
      "meta": {
        "profile": [ "https://www.medizininformatik-initiative.de/fhir/ext/modul-onko/StructureDefinition/mii-pr-onko-tumorkonferenz" ]
      },
      "identifier": [ {
        "system": "https://bzkf.github.io/obds-to-fhir/identifiers/tumorkonferenz-id",
        "value": "Tumorkonferenz_106"
      } ],
      "status": "active",
      "intent": "plan",
      "category": [ {
        "coding": [ {
          "system": "https://www.medizininformatik-initiative.de/fhir/ext/modul-onko/CodeSystem/mii-cs-onko-therapieplanung-typ",
          "code": "praeth"
        } ]
      } ],
      "subject": {
        "reference": "Patient/4a8639bbad9d5774878e0d6a132ece2b65912449072a6888e2028987d5d479c4"
      },
      "created": "2020-08-20",
      "addresses": [ {
        "reference": "Condition/17bc83a84fc6d9a7f9df24684aae287df117609026a237d1cf8d3fe73d1a6e39"
      } ],
      "activity": [ {
        "detail": {
          "code": {
            "coding": [ {
              "system": "https://www.medizininformatik-initiative.de/fhir/ext/modul-onko/CodeSystem/mii-cs-onko-therapie-typ",
              "code": "CH"
            } ]
          },
          "status": "cancelled",
          "statusReason": {
            "coding": [ {
              "system": "https://www.medizininformatik-initiative.de/fhir/ext/modul-onko/CodeSystem/mii-cs-onko-therapieabweichung",
              "code": "J"
            } ]
          }
        }
      }, {
        "detail": {
          "code": {
            "coding": [ {
              "system": "https://www.medizininformatik-initiative.de/fhir/ext/modul-onko/CodeSystem/mii-cs-onko-therapie-typ",
              "code": "ST"
            } ]
          },
          "status": "cancelled",
          "statusReason": {
            "coding": [ {
              "system": "https://www.medizininformatik-initiative.de/fhir/ext/modul-onko/CodeSystem/mii-cs-onko-therapieabweichung",
              "code": "J"
            } ]
          }
        }
      }, {
        "detail": {
          "code": {
            "coding": [ {
              "system": "https://www.medizininformatik-initiative.de/fhir/ext/modul-onko/CodeSystem/mii-cs-onko-therapie-typ",
              "code": "OP"
            } ]
          },
          "status": "cancelled",
          "statusReason": {
            "coding": [ {
              "system": "https://www.medizininformatik-initiative.de/fhir/ext/modul-onko/CodeSystem/mii-cs-onko-therapieabweichung",
              "code": "J"
            } ]
          }
        }
      } ]
    },
    "request": {
      "method": "PUT",
      "url": "CarePlan/c0c3af0b20396e56b2e997a4538f88c4f4953a97380c65490e5130ecb7b82ef1"
    }
  }, {
    "fullUrl": "Procedure/8fdf15fcb5aa74bc961258cdb94fa024d96d29751130268e18e1127617dcec01",
    "resource": {
      "resourceType": "Procedure",
      "id": "8fdf15fcb5aa74bc961258cdb94fa024d96d29751130268e18e1127617dcec01",
      "meta": {
        "profile": [ "https://www.medizininformatik-initiative.de/fhir/ext/modul-onko/StructureDefinition/mii-pr-onko-operation" ]
      },
      "extension": [ {
        "url": "https://www.medizininformatik-initiative.de/fhir/ext/modul-onko/StructureDefinition/mii-ex-onko-operation-intention",
        "valueCodeableConcept": {
          "coding": [ {
            "system": "https://www.medizininformatik-initiative.de/fhir/ext/modul-onko/CodeSystem/mii-cs-onko-intention",
            "code": "K"
          } ]
        }
      } ],
      "identifier": [ {
        "system": "https://bzkf.github.io/obds-to-fhir/identifiers/operation-procedure-id",
        "value": "1405-484.55"
      } ],
      "status": "completed",
      "category": {
        "coding": [ {
          "system": "http://snomed.info/sct",
          "code": "387713003",
          "display": "Surgical procedure"
        } ]
      },
      "code": {
        "coding": [ {
          "system": "http://fhir.de/CodeSystem/bfarm/ops",
          "version": "2020",
          "code": "5-484.55"
        } ]
      },
      "subject": {
        "reference": "Patient/4a8639bbad9d5774878e0d6a132ece2b65912449072a6888e2028987d5d479c4"
      },
      "performedDateTime": "2020-08-31",
      "reasonReference": [ {
        "reference": "Condition/17bc83a84fc6d9a7f9df24684aae287df117609026a237d1cf8d3fe73d1a6e39"
      } ],
      "outcome": {
        "coding": [ {
          "system": "https://www.medizininformatik-initiative.de/fhir/ext/modul-onko/CodeSystem/mii-cs-onko-residualstatus",
          "code": "R0"
        } ]
      }
    },
    "request": {
      "method": "PUT",
      "url": "Procedure/8fdf15fcb5aa74bc961258cdb94fa024d96d29751130268e18e1127617dcec01"
    }
  }, {
    "fullUrl": "Procedure/79bc42d887532b6b073892d8c9e4daacb236b87864f90ab64db155e758bfe5fa",
    "resource": {
      "resourceType": "Procedure",
      "id": "79bc42d887532b6b073892d8c9e4daacb236b87864f90ab64db155e758bfe5fa",
      "meta": {
        "profile": [ "https://www.medizininformatik-initiative.de/fhir/ext/modul-onko/StructureDefinition/mii-pr-onko-operation" ]
      },
      "extension": [ {
        "url": "https://www.medizininformatik-initiative.de/fhir/ext/modul-onko/StructureDefinition/mii-ex-onko-operation-intention",
        "valueCodeableConcept": {
          "coding": [ {
            "system": "https://www.medizininformatik-initiative.de/fhir/ext/modul-onko/CodeSystem/mii-cs-onko-intention",
            "code": "K"
          } ]
        }
      } ],
      "identifier": [ {
        "system": "https://bzkf.github.io/obds-to-fhir/identifiers/operation-procedure-id",
        "value": "1405-402.a"
      } ],
      "status": "completed",
      "category": {
        "coding": [ {
          "system": "http://snomed.info/sct",
          "code": "387713003",
          "display": "Surgical procedure"
        } ]
      },
      "code": {
        "coding": [ {
          "system": "http://fhir.de/CodeSystem/bfarm/ops",
          "version": "2020",
          "code": "5-402.a"
        } ]
      },
      "subject": {
        "reference": "Patient/4a8639bbad9d5774878e0d6a132ece2b65912449072a6888e2028987d5d479c4"
      },
      "performedDateTime": "2020-08-31",
      "reasonReference": [ {
        "reference": "Condition/17bc83a84fc6d9a7f9df24684aae287df117609026a237d1cf8d3fe73d1a6e39"
      } ],
      "outcome": {
        "coding": [ {
          "system": "https://www.medizininformatik-initiative.de/fhir/ext/modul-onko/CodeSystem/mii-cs-onko-residualstatus",
          "code": "R0"
        } ]
      }
    },
    "request": {
      "method": "PUT",
      "url": "Procedure/79bc42d887532b6b073892d8c9e4daacb236b87864f90ab64db155e758bfe5fa"
    }
  }, {
    "fullUrl": "Observation/a30af108fe299ccd35464232c6f48499d73f2bf2fb6be244a50531850ededcb7",
    "resource": {
      "resourceType": "Observation",
      "id": "a30af108fe299ccd35464232c6f48499d73f2bf2fb6be244a50531850ededcb7",
      "identifier": [ {
        "system": "https://bzkf.github.io/obds-to-fhir/identifiers/residualstatus-observation-id",
        "value": "140"
      } ],
      "status": "final",
      "code": {
        "coding": [ {
          "system": "http://loinc.org",
          "code": "84892-9"
        } ]
      },
      "subject": {
        "reference": "Patient/4a8639bbad9d5774878e0d6a132ece2b65912449072a6888e2028987d5d479c4"
      },
      "focus": [ {
        "reference": "Condition/17bc83a84fc6d9a7f9df24684aae287df117609026a237d1cf8d3fe73d1a6e39"
      } ],
      "effectiveDateTime": "2020-08-31",
      "valueCodeableConcept": {
        "coding": [ {
          "system": "https://www.medizininformatik-initiative.de/fhir/ext/modul-onko/CodeSystem/mii-cs-onko-residualstatus",
          "code": "R0"
        } ]
      }
    },
    "request": {
      "method": "PUT",
      "url": "Observation/a30af108fe299ccd35464232c6f48499d73f2bf2fb6be244a50531850ededcb7"
    }
  }, {
    "fullUrl": "Specimen/4ee866e5d38ec92b3a65985eb10ad3c56ad5fdb4306b802e01240c388a88de1c",
    "resource": {
      "resourceType": "Specimen",
      "id": "4ee866e5d38ec92b3a65985eb10ad3c56ad5fdb4306b802e01240c388a88de1c",
      "meta": {
        "profile": [ "https://www.medizininformatik-initiative.de/fhir/ext/modul-onko/StructureDefinition/mii-pr-onko-specimen" ]
      },
      "identifier": [ {
        "system": "https://bzkf.github.io/obds-to-fhir/identifiers/specimen-id",
        "value": "259"
      } ],
      "subject": {
        "reference": "Patient/4a8639bbad9d5774878e0d6a132ece2b65912449072a6888e2028987d5d479c4"
      },
      "collection": {
        "collectedDateTime": "2020-08-31"
      }
    },
    "request": {
      "method": "PUT",
      "url": "Specimen/4ee866e5d38ec92b3a65985eb10ad3c56ad5fdb4306b802e01240c388a88de1c"
    }
  }, {
    "fullUrl": "Observation/b7a19ce7392a787c372d943646a09975be3dc6de1fe72e239cc6bd64c3b11bb9",
    "resource": {
      "resourceType": "Observation",
      "id": "b7a19ce7392a787c372d943646a09975be3dc6de1fe72e239cc6bd64c3b11bb9",
      "meta": {
        "profile": [ "https://www.medizininformatik-initiative.de/fhir/ext/modul-onko/StructureDefinition/mii-pr-onko-histologie-icdo3" ]
      },
      "identifier": [ {
        "system": "https://bzkf.github.io/obds-to-fhir/identifiers/observation-histologie-id",
        "value": "259_ICDO3_8140/3"
      } ],
      "status": "final",
      "code": {
        "coding": [ {
          "system": "http://loinc.org",
          "code": "59847-4"
        } ]
      },
      "subject": {
        "reference": "Patient/4a8639bbad9d5774878e0d6a132ece2b65912449072a6888e2028987d5d479c4"
      },
      "focus": [ {
        "reference": "Condition/17bc83a84fc6d9a7f9df24684aae287df117609026a237d1cf8d3fe73d1a6e39"
      } ],
      "effectiveDateTime": "2020-08-31",
      "valueCodeableConcept": {
        "coding": [ {
          "system": "http://terminology.hl7.org/CodeSystem/icd-o-3",
          "version": "31",
          "code": "8140/3"
        } ],
        "text": "Adenokarzinom o.n.A."
      },
      "specimen": {
        "reference": "Specimen/4ee866e5d38ec92b3a65985eb10ad3c56ad5fdb4306b802e01240c388a88de1c"
      }
    },
    "request": {
      "method": "PUT",
      "url": "Observation/b7a19ce7392a787c372d943646a09975be3dc6de1fe72e239cc6bd64c3b11bb9"
    }
  }, {
    "fullUrl": "Observation/efee8dbdbc4dfe0e0555309de30033aa37851ee628b0af84622e0c551cfdb3be",
    "resource": {
      "resourceType": "Observation",
      "id": "efee8dbdbc4dfe0e0555309de30033aa37851ee628b0af84622e0c551cfdb3be",
      "meta": {
        "profile": [ "https://www.medizininformatik-initiative.de/fhir/ext/modul-onko/StructureDefinition/mii-pr-onko-grading" ]
      },
      "identifier": [ {
        "system": "https://bzkf.github.io/obds-to-fhir/identifiers/grading-observation-id",
        "value": "259_Grading"
      } ],
      "status": "final",
      "category": [ {
        "coding": [ {
          "system": "http://terminology.hl7.org/CodeSystem/observation-category",
          "code": "laboratory"
        } ]
      } ],
      "code": {
        "coding": [ {
          "system": "http://loinc.org",
          "code": "33732-9"
        }, {
          "system": "http://snomed.info/sct",
          "code": "371469007"
        } ]
      },
      "subject": {
        "reference": "Patient/4a8639bbad9d5774878e0d6a132ece2b65912449072a6888e2028987d5d479c4"
      },
      "focus": [ {
        "reference": "Condition/17bc83a84fc6d9a7f9df24684aae287df117609026a237d1cf8d3fe73d1a6e39"
      } ],
      "effectiveDateTime": "2020-08-31",
      "valueCodeableConcept": {
        "coding": [ {
          "system": "https://www.medizininformatik-initiative.de/fhir/ext/modul-onko/CodeSystem/mii-cs-onko-grading",
          "code": "3"
        } ]
      },
      "specimen": {
        "reference": "Specimen/4ee866e5d38ec92b3a65985eb10ad3c56ad5fdb4306b802e01240c388a88de1c"
      }
    },
    "request": {
      "method": "PUT",
      "url": "Observation/efee8dbdbc4dfe0e0555309de30033aa37851ee628b0af84622e0c551cfdb3be"
    }
  }, {
    "fullUrl": "Observation/68ebc4629774846eab4388c7641be172e0012a3124231b085f01e9b3d1dedbac",
    "resource": {
      "resourceType": "Observation",
      "id": "68ebc4629774846eab4388c7641be172e0012a3124231b085f01e9b3d1dedbac",
      "meta": {
        "profile": [ "https://www.medizininformatik-initiative.de/fhir/ext/modul-onko/StructureDefinition/mii-pr-onko-anzahl-befallene-lymphknoten" ]
      },
      "identifier": [ {
        "system": "https://bzkf.github.io/obds-to-fhir/identifiers/observation-histologie-id",
        "value": "259_befallen"
      } ],
      "status": "final",
      "category": [ {
        "coding": [ {
          "system": "http://terminology.hl7.org/CodeSystem/observation-category",
          "code": "laboratory"
        } ]
      } ],
      "code": {
        "coding": [ {
          "system": "http://loinc.org",
          "code": "21893-3"
        }, {
          "system": "http://snomed.info/sct",
          "code": "443527007"
        } ]
      },
      "subject": {
        "reference": "Patient/4a8639bbad9d5774878e0d6a132ece2b65912449072a6888e2028987d5d479c4"
      },
      "focus": [ {
        "reference": "Condition/17bc83a84fc6d9a7f9df24684aae287df117609026a237d1cf8d3fe73d1a6e39"
      } ],
      "effectiveDateTime": "2020-08-31",
      "valueQuantity": {
        "value": 0,
        "unit": "#",
        "system": "http://unitsofmeasure.org",
        "code": "1"
      },
      "specimen": {
        "reference": "Specimen/4ee866e5d38ec92b3a65985eb10ad3c56ad5fdb4306b802e01240c388a88de1c"
      }
    },
    "request": {
      "method": "PUT",
      "url": "Observation/68ebc4629774846eab4388c7641be172e0012a3124231b085f01e9b3d1dedbac"
    }
  }, {
    "fullUrl": "Observation/93aa3e8d751339e6ac409291373cc170572f46fa31123cd245f6880ba7f9d3a6",
    "resource": {
      "resourceType": "Observation",
      "id": "93aa3e8d751339e6ac409291373cc170572f46fa31123cd245f6880ba7f9d3a6",
      "meta": {
        "profile": [ "https://www.medizininformatik-initiative.de/fhir/ext/modul-onko/StructureDefinition/mii-pr-onko-anzahl-untersuchte-lymphknoten" ]
      },
      "identifier": [ {
        "system": "https://bzkf.github.io/obds-to-fhir/identifiers/observation-histologie-id",
        "value": "259_untersucht"
      } ],
      "status": "final",
      "category": [ {
        "coding": [ {
          "system": "http://terminology.hl7.org/CodeSystem/observation-category",
          "code": "laboratory"
        } ]
      } ],
      "code": {
        "coding": [ {
          "system": "http://loinc.org",
          "code": "21894-1"
        }, {
          "system": "http://snomed.info/sct",
          "code": "444025001"
        } ]
      },
      "subject": {
        "reference": "Patient/4a8639bbad9d5774878e0d6a132ece2b65912449072a6888e2028987d5d479c4"
      },
      "focus": [ {
        "reference": "Condition/17bc83a84fc6d9a7f9df24684aae287df117609026a237d1cf8d3fe73d1a6e39"
      } ],
      "effectiveDateTime": "2020-08-31",
      "valueQuantity": {
        "value": 14,
        "unit": "#",
        "system": "http://unitsofmeasure.org",
        "code": "1"
      },
      "specimen": {
        "reference": "Specimen/4ee866e5d38ec92b3a65985eb10ad3c56ad5fdb4306b802e01240c388a88de1c"
      }
    },
    "request": {
      "method": "PUT",
      "url": "Observation/93aa3e8d751339e6ac409291373cc170572f46fa31123cd245f6880ba7f9d3a6"
    }
  }, {
    "fullUrl": "Observation/dfbe1e6aa32e9cb8d42737e3168aebe037ae297852fa6b6fb84cf080080a3c55",
    "resource": {
      "resourceType": "Observation",
      "id": "dfbe1e6aa32e9cb8d42737e3168aebe037ae297852fa6b6fb84cf080080a3c55",
      "meta": {
        "profile": [ "https://www.medizininformatik-initiative.de/fhir/ext/modul-onko/StructureDefinition/mii-pr-onko-tnm-t-kategorie" ]
      },
      "identifier": [ {
        "system": "246_T",
        "value": "https://bzkf.github.io/obds-to-fhir/identifiers/tnm-t-kategorie-observation-id"
      } ],
      "status": "final",
      "code": {
        "extension": [ {
          "url": "https://www.medizininformatik-initiative.de/fhir/ext/modul-onko/StructureDefinition/mii-ex-onko-tnm-cp-praefix",
          "valueCodeableConcept": {
            "coding": [ {
              "system": "https://www.uicc.org/resources/tnm",
              "code": "p"
            } ]
          }
        } ],
        "coding": [ {
          "system": "http://snomed.info/sct",
          "code": "384625004",
          "display": "pT category (observable entity)"
        } ]
      },
      "subject": {
        "reference": "Patient/4a8639bbad9d5774878e0d6a132ece2b65912449072a6888e2028987d5d479c4"
      },
      "focus": [ {
        "reference": "Condition/17bc83a84fc6d9a7f9df24684aae287df117609026a237d1cf8d3fe73d1a6e39"
      } ],
      "effectiveDateTime": "2020-08-31",
      "valueCodeableConcept": {
        "coding": [ {
          "system": "https://www.uicc.org/resources/tnm",
          "code": "3"
        } ]
      },
      "method": {
        "coding": [ {
          "system": "https://www.medizininformatik-initiative.de/fhir/ext/modul-onko/CodeSystem/mii-cs-onko-tnm-version",
          "code": "8"
        } ]
      }
    },
    "request": {
      "method": "PUT",
      "url": "Observation/dfbe1e6aa32e9cb8d42737e3168aebe037ae297852fa6b6fb84cf080080a3c55"
    }
  }, {
    "fullUrl": "Observation/3b7978cbc5d46a37727014d298b63313c561cffb70a9118d4ed6b0fc3ef8ea26",
    "resource": {
      "resourceType": "Observation",
      "id": "3b7978cbc5d46a37727014d298b63313c561cffb70a9118d4ed6b0fc3ef8ea26",
      "meta": {
        "profile": [ "https://www.medizininformatik-initiative.de/fhir/ext/modul-onko/StructureDefinition/mii-pr-onko-tnm-n-kategorie" ]
      },
      "identifier": [ {
        "system": "246_N",
        "value": "https://bzkf.github.io/obds-to-fhir/identifiers/tnm-n-kategorie-observation-id"
      } ],
      "status": "final",
      "code": {
        "extension": [ {
          "url": "https://www.medizininformatik-initiative.de/fhir/ext/modul-onko/StructureDefinition/mii-ex-onko-tnm-cp-praefix",
          "valueCodeableConcept": {
            "coding": [ {
              "system": "https://www.uicc.org/resources/tnm",
              "code": "p"
            } ]
          }
        } ],
        "coding": [ {
          "system": "http://snomed.info/sct",
          "code": "371494008",
          "display": "pN category (observable entity)"
        } ]
      },
      "subject": {
        "reference": "Patient/4a8639bbad9d5774878e0d6a132ece2b65912449072a6888e2028987d5d479c4"
      },
      "focus": [ {
        "reference": "Condition/17bc83a84fc6d9a7f9df24684aae287df117609026a237d1cf8d3fe73d1a6e39"
      } ],
      "effectiveDateTime": "2020-08-31",
      "valueCodeableConcept": {
        "coding": [ {
          "system": "https://www.uicc.org/resources/tnm",
          "code": "0"
        } ]
      },
      "method": {
        "coding": [ {
          "system": "https://www.medizininformatik-initiative.de/fhir/ext/modul-onko/CodeSystem/mii-cs-onko-tnm-version",
          "code": "8"
        } ]
      }
    },
    "request": {
      "method": "PUT",
      "url": "Observation/3b7978cbc5d46a37727014d298b63313c561cffb70a9118d4ed6b0fc3ef8ea26"
    }
  }, {
    "fullUrl": "Observation/ff578b8a9e601ada36df3492add728f91fedf2d3cfdfdeddf06a92c9c3b43fee",
    "resource": {
      "resourceType": "Observation",
      "id": "ff578b8a9e601ada36df3492add728f91fedf2d3cfdfdeddf06a92c9c3b43fee",
      "meta": {
        "profile": [ "https://www.medizininformatik-initiative.de/fhir/ext/modul-onko/StructureDefinition/mii-pr-onko-tnm-m-kategorie" ]
      },
      "identifier": [ {
        "system": "246_M",
        "value": "https://bzkf.github.io/obds-to-fhir/identifiers/tnm-m-kategorie-observation-id"
      } ],
      "status": "final",
      "code": {
        "extension": [ {
          "url": "https://www.medizininformatik-initiative.de/fhir/ext/modul-onko/StructureDefinition/mii-ex-onko-tnm-cp-praefix",
          "valueCodeableConcept": {
            "coding": [ {
              "system": "https://www.uicc.org/resources/tnm",
              "code": "c"
            } ]
          }
        } ],
        "coding": [ {
          "system": "http://snomed.info/sct",
          "code": "399387003",
          "display": "cM category (observable entity)"
        } ]
      },
      "subject": {
        "reference": "Patient/4a8639bbad9d5774878e0d6a132ece2b65912449072a6888e2028987d5d479c4"
      },
      "focus": [ {
        "reference": "Condition/17bc83a84fc6d9a7f9df24684aae287df117609026a237d1cf8d3fe73d1a6e39"
      } ],
      "effectiveDateTime": "2020-08-31",
      "valueCodeableConcept": {
        "coding": [ {
          "system": "https://www.uicc.org/resources/tnm",
          "code": "0"
        } ]
      },
      "method": {
        "coding": [ {
          "system": "https://www.medizininformatik-initiative.de/fhir/ext/modul-onko/CodeSystem/mii-cs-onko-tnm-version",
          "code": "8"
        } ]
      }
    },
    "request": {
      "method": "PUT",
      "url": "Observation/ff578b8a9e601ada36df3492add728f91fedf2d3cfdfdeddf06a92c9c3b43fee"
    }
  }, {
    "fullUrl": "Observation/387c51ec5b79836fe42555e8a151a42fbe19dec653e3cd1b583625a861dd7e18",
    "resource": {
      "resourceType": "Observation",
      "id": "387c51ec5b79836fe42555e8a151a42fbe19dec653e3cd1b583625a861dd7e18",
      "meta": {
        "profile": [ "https://www.medizininformatik-initiative.de/fhir/ext/modul-onko/StructureDefinition/mii-pr-onko-tnm-m-symbol" ]
      },
      "identifier": [ {
        "system": "246_m",
        "value": "https://bzkf.github.io/obds-to-fhir/identifiers/tnm-m-symbol-observation-id"
      } ],
      "status": "final",
      "code": {
        "coding": [ {
          "system": "http://loinc.org",
          "code": "42030-7"
        } ]
      },
      "subject": {
        "reference": "Patient/4a8639bbad9d5774878e0d6a132ece2b65912449072a6888e2028987d5d479c4"
      },
      "focus": [ {
        "reference": "Condition/17bc83a84fc6d9a7f9df24684aae287df117609026a237d1cf8d3fe73d1a6e39"
      } ],
      "effectiveDateTime": "2020-08-31",
      "valueCodeableConcept": {
        "coding": [ {
          "system": "https://www.uicc.org/resources/tnm",
          "code": "2"
        } ]
      },
      "method": {
        "coding": [ {
          "system": "https://www.medizininformatik-initiative.de/fhir/ext/modul-onko/CodeSystem/mii-cs-onko-tnm-version",
          "code": "8"
        } ]
      }
    },
    "request": {
      "method": "PUT",
      "url": "Observation/387c51ec5b79836fe42555e8a151a42fbe19dec653e3cd1b583625a861dd7e18"
    }
  }, {
    "fullUrl": "Observation/5c00aa511b99b4270cdbab2c1bd99dea924eb1a8e963936f68a524d77430bbe8",
    "resource": {
      "resourceType": "Observation",
      "id": "5c00aa511b99b4270cdbab2c1bd99dea924eb1a8e963936f68a524d77430bbe8",
      "meta": {
        "profile": [ "https://www.medizininformatik-initiative.de/fhir/ext/modul-onko/StructureDefinition/mii-pr-onko-tnm-l-kategorie" ]
      },
      "identifier": [ {
        "system": "246_L",
        "value": "https://bzkf.github.io/obds-to-fhir/identifiers/tnm-l-kategorie-observation-id"
      } ],
      "status": "final",
      "code": {
        "coding": [ {
          "system": "http://snomed.info/sct",
          "code": "395715009"
        } ]
      },
      "subject": {
        "reference": "Patient/4a8639bbad9d5774878e0d6a132ece2b65912449072a6888e2028987d5d479c4"
      },
      "focus": [ {
        "reference": "Condition/17bc83a84fc6d9a7f9df24684aae287df117609026a237d1cf8d3fe73d1a6e39"
      } ],
      "effectiveDateTime": "2020-08-31",
      "valueCodeableConcept": {
        "coding": [ {
          "system": "https://www.uicc.org/resources/tnm",
          "code": "L0"
        } ]
      },
      "method": {
        "coding": [ {
          "system": "https://www.medizininformatik-initiative.de/fhir/ext/modul-onko/CodeSystem/mii-cs-onko-tnm-version",
          "code": "8"
        } ]
      }
    },
    "request": {
      "method": "PUT",
      "url": "Observation/5c00aa511b99b4270cdbab2c1bd99dea924eb1a8e963936f68a524d77430bbe8"
    }
  }, {
    "fullUrl": "Observation/b155301b2ecee27ee0a699c3604c03d0234c491590fe02e4a858e893af293b95",
    "resource": {
      "resourceType": "Observation",
      "id": "b155301b2ecee27ee0a699c3604c03d0234c491590fe02e4a858e893af293b95",
      "meta": {
        "profile": [ "\thttps://www.medizininformatik-initiative.de/fhir/ext/modul-onko/StructureDefinition/mii-pr-onko-tnm-pn-kategorie" ]
      },
      "identifier": [ {
        "system": "246_Pn",
        "value": "https://bzkf.github.io/obds-to-fhir/identifiers/tnm-pn-kategorie-observation-id"
      } ],
      "status": "final",
      "code": {
        "coding": [ {
          "system": "http://snomed.info/sct",
          "code": "371513001"
        } ]
      },
      "subject": {
        "reference": "Patient/4a8639bbad9d5774878e0d6a132ece2b65912449072a6888e2028987d5d479c4"
      },
      "focus": [ {
        "reference": "Condition/17bc83a84fc6d9a7f9df24684aae287df117609026a237d1cf8d3fe73d1a6e39"
      } ],
      "effectiveDateTime": "2020-08-31",
      "valueCodeableConcept": {
        "coding": [ {
          "system": "https://www.uicc.org/resources/tnm",
          "code": "Pn0"
        } ]
      },
      "method": {
        "coding": [ {
          "system": "https://www.medizininformatik-initiative.de/fhir/ext/modul-onko/CodeSystem/mii-cs-onko-tnm-version",
          "code": "8"
        } ]
      }
    },
    "request": {
      "method": "PUT",
      "url": "Observation/b155301b2ecee27ee0a699c3604c03d0234c491590fe02e4a858e893af293b95"
    }
  }, {
    "fullUrl": "Observation/66cfd39e740d5c25624d6eeac483cd05f73535ff3564e27f63a4f1e43c4355f7",
    "resource": {
      "resourceType": "Observation",
      "id": "66cfd39e740d5c25624d6eeac483cd05f73535ff3564e27f63a4f1e43c4355f7",
      "meta": {
        "profile": [ "https://www.medizininformatik-initiative.de/fhir/ext/modul-onko/StructureDefinition/mii-pr-onko-tnm-v-kategorie" ]
      },
      "identifier": [ {
        "system": "246_V",
        "value": "https://bzkf.github.io/obds-to-fhir/identifiers/tnm-v-kategorie-observation-id"
      } ],
      "status": "final",
      "code": {
        "coding": [ {
          "system": "http://snomed.info/sct",
          "code": "371493002"
        } ]
      },
      "subject": {
        "reference": "Patient/4a8639bbad9d5774878e0d6a132ece2b65912449072a6888e2028987d5d479c4"
      },
      "focus": [ {
        "reference": "Condition/17bc83a84fc6d9a7f9df24684aae287df117609026a237d1cf8d3fe73d1a6e39"
      } ],
      "effectiveDateTime": "2020-08-31",
      "valueCodeableConcept": {
        "coding": [ {
          "system": "https://www.uicc.org/resources/tnm",
          "code": "V0"
        } ]
      },
      "method": {
        "coding": [ {
          "system": "https://www.medizininformatik-initiative.de/fhir/ext/modul-onko/CodeSystem/mii-cs-onko-tnm-version",
          "code": "8"
        } ]
      }
    },
    "request": {
      "method": "PUT",
      "url": "Observation/66cfd39e740d5c25624d6eeac483cd05f73535ff3564e27f63a4f1e43c4355f7"
    }
  }, {
    "fullUrl": "Observation/c30e7de9bdc4ebe09b29a506fd26289dee859e2003597cc96f86f558dbcacd61",
    "resource": {
      "resourceType": "Observation",
      "id": "c30e7de9bdc4ebe09b29a506fd26289dee859e2003597cc96f86f558dbcacd61",
      "meta": {
        "profile": [ "https://www.medizininformatik-initiative.de/fhir/ext/modul-onko/StructureDefinition/mii-pr-onko-tnm-klassifikation" ]
      },
      "identifier": [ {
        "system": "https://bzkf.github.io/obds-to-fhir/identifiers/tnm-grouping-observation-id",
        "value": "246"
      } ],
      "status": "final",
      "code": {
        "coding": [ {
          "system": "http://snomed.info/sct",
          "code": "399588009",
          "display": "TNM stage grouping"
        } ]
      },
      "subject": {
        "reference": "Patient/4a8639bbad9d5774878e0d6a132ece2b65912449072a6888e2028987d5d479c4"
      },
      "focus": [ {
        "reference": "Condition/17bc83a84fc6d9a7f9df24684aae287df117609026a237d1cf8d3fe73d1a6e39"
      } ],
      "effectiveDateTime": "2020-08-31",
      "valueCodeableConcept": {
        "coding": [ {
          "system": "https://www.uicc.org/resources/tnm",
          "code": "IIA",
          "display": "Stadium IIA"
        } ]
      },
      "method": {
        "coding": [ {
          "system": "https://www.medizininformatik-initiative.de/fhir/ext/modul-onko/CodeSystem/mii-cs-onko-tnm-version",
          "code": "8"
        } ]
      },
      "hasMember": [ {
        "reference": "Observation/dfbe1e6aa32e9cb8d42737e3168aebe037ae297852fa6b6fb84cf080080a3c55"
      }, {
        "reference": "Observation/3b7978cbc5d46a37727014d298b63313c561cffb70a9118d4ed6b0fc3ef8ea26"
      }, {
        "reference": "Observation/ff578b8a9e601ada36df3492add728f91fedf2d3cfdfdeddf06a92c9c3b43fee"
      }, {
        "reference": "Observation/387c51ec5b79836fe42555e8a151a42fbe19dec653e3cd1b583625a861dd7e18"
      }, {
        "reference": "Observation/5c00aa511b99b4270cdbab2c1bd99dea924eb1a8e963936f68a524d77430bbe8"
      }, {
        "reference": "Observation/b155301b2ecee27ee0a699c3604c03d0234c491590fe02e4a858e893af293b95"
      }, {
        "reference": "Observation/66cfd39e740d5c25624d6eeac483cd05f73535ff3564e27f63a4f1e43c4355f7"
      } ]
    },
    "request": {
      "method": "PUT",
      "url": "Observation/c30e7de9bdc4ebe09b29a506fd26289dee859e2003597cc96f86f558dbcacd61"
    }
  }, {
    "fullUrl": "CarePlan/a86febabf8a081cdeaa9fbf46723d107483556a454b469e4fbc45a7eb12ef290",
    "resource": {
      "resourceType": "CarePlan",
      "id": "a86febabf8a081cdeaa9fbf46723d107483556a454b469e4fbc45a7eb12ef290",
      "meta": {
        "profile": [ "https://www.medizininformatik-initiative.de/fhir/ext/modul-onko/StructureDefinition/mii-pr-onko-tumorkonferenz" ]
      },
      "identifier": [ {
        "system": "https://bzkf.github.io/obds-to-fhir/identifiers/tumorkonferenz-id",
        "value": "Tumorkonferenz_107"
      } ],
      "status": "completed",
      "intent": "plan",
      "category": [ {
        "coding": [ {
          "system": "https://www.medizininformatik-initiative.de/fhir/ext/modul-onko/CodeSystem/mii-cs-onko-therapieplanung-typ",
          "code": "postop"
        } ]
      } ],
      "subject": {
        "reference": "Patient/4a8639bbad9d5774878e0d6a132ece2b65912449072a6888e2028987d5d479c4"
      },
      "created": "2020-09-09",
      "addresses": [ {
        "reference": "Condition/17bc83a84fc6d9a7f9df24684aae287df117609026a237d1cf8d3fe73d1a6e39"
      } ],
      "activity": [ {
        "detail": {
          "code": {
            "coding": [ {
              "system": "https://www.medizininformatik-initiative.de/fhir/ext/modul-onko/CodeSystem/mii-cs-onko-therapie-typ",
              "code": "CH"
            } ]
          },
          "status": "completed",
          "statusReason": {
            "coding": [ {
              "system": "https://www.medizininformatik-initiative.de/fhir/ext/modul-onko/CodeSystem/mii-cs-onko-therapieabweichung",
              "code": "N"
            } ]
          }
        }
      }, {
        "detail": {
          "code": {
            "coding": [ {
              "system": "https://www.medizininformatik-initiative.de/fhir/ext/modul-onko/CodeSystem/mii-cs-onko-therapie-typ",
              "code": "ST"
            } ]
          },
          "status": "completed",
          "statusReason": {
            "coding": [ {
              "system": "https://www.medizininformatik-initiative.de/fhir/ext/modul-onko/CodeSystem/mii-cs-onko-therapieabweichung",
              "code": "N"
            } ]
          }
        }
      } ]
    },
    "request": {
      "method": "PUT",
      "url": "CarePlan/a86febabf8a081cdeaa9fbf46723d107483556a454b469e4fbc45a7eb12ef290"
    }
  }, {
    "fullUrl": "Procedure/f6ed3b0fa56f326e5a7aec89c9c57decd6bef29b24da97bb20060c0b6a5baebe",
    "resource": {
      "resourceType": "Procedure",
      "id": "f6ed3b0fa56f326e5a7aec89c9c57decd6bef29b24da97bb20060c0b6a5baebe",
      "meta": {
        "profile": [ "https://www.medizininformatik-initiative.de/fhir/ext/modul-onko/StructureDefinition/mii-pr-onko-systemische-therapie" ]
      },
      "extension": [ {
        "url": "https://www.medizininformatik-initiative.de/fhir/ext/modul-onko/StructureDefinition/mii-ex-onko-systemische-therapie-intention",
        "valueCodeableConcept": {
          "coding": [ {
            "system": "https://www.medizininformatik-initiative.de/fhir/ext/modul-onko/CodeSystem/mii-cs-onko-intention",
            "code": "K"
          } ]
        }
      }, {
        "url": "https://www.medizininformatik-initiative.de/fhir/ext/modul-onko/StructureDefinition/mii-ex-onko-strahlentherapie-stellungzurop",
        "valueCodeableConcept": {
          "coding": [ {
            "system": "https://www.medizininformatik-initiative.de/fhir/ext/modul-onko/CodeSystem/mii-cs-onko-therapie-stellungzurop",
            "code": "A"
          } ]
        }
      } ],
      "identifier": [ {
        "system": "https://bzkf.github.io/obds-to-fhir/identifiers/systemische-therapie-procedure-id",
        "value": "50_1_IN_1"
      } ],
      "status": "in-progress",
      "category": {
        "coding": [ {
          "system": "http://snomed.info/sct",
          "code": "18629005"
        } ]
      },
      "code": {
        "coding": [ {
          "system": "http://fhir.de/CodeSystem/bfarm/ops",
          "code": "8-54"
        }, {
          "system": "https://www.medizininformatik-initiative.de/fhir/ext/modul-onko/CodeSystem/mii-cs-onko-therapie-typ",
          "code": "CH"
        } ]
      },
      "subject": {
        "reference": "Patient/4a8639bbad9d5774878e0d6a132ece2b65912449072a6888e2028987d5d479c4"
      },
      "performedPeriod": {
        "start": "2020-09-21"
      }
    },
    "request": {
      "method": "PUT",
      "url": "Procedure/f6ed3b0fa56f326e5a7aec89c9c57decd6bef29b24da97bb20060c0b6a5baebe"
    }
  }, {
    "fullUrl": "MedicationStatement/28624a0c37b503a71f85a8c75b59a64f0a0d81c62336eaafbbfc8d6b8cfc6813",
    "resource": {
      "resourceType": "MedicationStatement",
      "id": "28624a0c37b503a71f85a8c75b59a64f0a0d81c62336eaafbbfc8d6b8cfc6813",
      "meta": {
        "profile": [ "https://www.medizininformatik-initiative.de/fhir/core/modul-medikation/StructureDefinition/MedicationStatement" ]
      },
      "identifier": [ {
        "system": "https://bzkf.github.io/obds-to-fhir/identifiers/systemische-therapie-medication-statement-id",
        "value": "50_1_IN_1_Folinsure_1a0d"
      } ],
      "partOf": [ {
        "reference": "Procedure/f6ed3b0fa56f326e5a7aec89c9c57decd6bef29b24da97bb20060c0b6a5baebe"
      } ],
      "status": "active",
      "medicationCodeableConcept": {
        "text": "Folinsäure"
      },
      "subject": {
        "reference": "Patient/4a8639bbad9d5774878e0d6a132ece2b65912449072a6888e2028987d5d479c4"
      },
      "effectivePeriod": {
        "start": "2020-09-21"
      }
    },
    "request": {
      "method": "PUT",
      "url": "MedicationStatement/28624a0c37b503a71f85a8c75b59a64f0a0d81c62336eaafbbfc8d6b8cfc6813"
    }
  }, {
    "fullUrl": "MedicationStatement/e01692be68e07b519fe8d6f8ae1ffd30e356c52261bbe222e4e2cd70410779a9",
    "resource": {
      "resourceType": "MedicationStatement",
      "id": "e01692be68e07b519fe8d6f8ae1ffd30e356c52261bbe222e4e2cd70410779a9",
      "meta": {
        "profile": [ "https://www.medizininformatik-initiative.de/fhir/core/modul-medikation/StructureDefinition/MedicationStatement" ]
      },
      "identifier": [ {
        "system": "https://bzkf.github.io/obds-to-fhir/identifiers/systemische-therapie-medication-statement-id",
        "value": "50_1_IN_1_5Fluorouracil_d603"
      } ],
      "partOf": [ {
        "reference": "Procedure/f6ed3b0fa56f326e5a7aec89c9c57decd6bef29b24da97bb20060c0b6a5baebe"
      } ],
      "status": "active",
      "medicationCodeableConcept": {
        "text": "5-Fluorouracil"
      },
      "subject": {
        "reference": "Patient/4a8639bbad9d5774878e0d6a132ece2b65912449072a6888e2028987d5d479c4"
      },
      "effectivePeriod": {
        "start": "2020-09-21"
      }
    },
    "request": {
      "method": "PUT",
      "url": "MedicationStatement/e01692be68e07b519fe8d6f8ae1ffd30e356c52261bbe222e4e2cd70410779a9"
    }
  }, {
    "fullUrl": "MedicationStatement/309137e2e12ef67315353efda404c16a4faf929a97a94b919595e0571a0d5fb4",
    "resource": {
      "resourceType": "MedicationStatement",
      "id": "309137e2e12ef67315353efda404c16a4faf929a97a94b919595e0571a0d5fb4",
      "meta": {
        "profile": [ "https://www.medizininformatik-initiative.de/fhir/core/modul-medikation/StructureDefinition/MedicationStatement" ]
      },
      "identifier": [ {
        "system": "https://bzkf.github.io/obds-to-fhir/identifiers/systemische-therapie-medication-statement-id",
        "value": "50_1_IN_1_Oxaliplatin_11c8"
      } ],
      "partOf": [ {
        "reference": "Procedure/f6ed3b0fa56f326e5a7aec89c9c57decd6bef29b24da97bb20060c0b6a5baebe"
      } ],
      "status": "active",
      "medicationCodeableConcept": {
        "text": "Oxaliplatin"
      },
      "subject": {
        "reference": "Patient/4a8639bbad9d5774878e0d6a132ece2b65912449072a6888e2028987d5d479c4"
      },
      "effectivePeriod": {
        "start": "2020-09-21"
      }
    },
    "request": {
      "method": "PUT",
      "url": "MedicationStatement/309137e2e12ef67315353efda404c16a4faf929a97a94b919595e0571a0d5fb4"
    }
  }, {
    "fullUrl": "Procedure/dcf6ca4b7c2edcc9f181f404ae33c3e30a055f43dd78a38bbce4f2ef353a46d4",
    "resource": {
      "resourceType": "Procedure",
      "id": "dcf6ca4b7c2edcc9f181f404ae33c3e30a055f43dd78a38bbce4f2ef353a46d4",
      "meta": {
        "profile": [ "https://www.medizininformatik-initiative.de/fhir/ext/modul-onko/StructureDefinition/mii-pr-onko-strahlentherapie" ]
      },
      "extension": [ {
        "url": "https://www.medizininformatik-initiative.de/fhir/ext/modul-onko/StructureDefinition/mii-ex-onko-strahlentherapie-intention",
        "valueCodeableConcept": {
          "coding": [ {
            "system": "https://www.medizininformatik-initiative.de/fhir/ext/modul-onko/CodeSystem/mii-cs-onko-intention",
            "code": "K"
          } ]
        }
      }, {
        "url": "https://www.medizininformatik-initiative.de/fhir/ext/modul-onko/StructureDefinition/mii-ex-onko-strahlentherapie-stellungzurop",
        "valueCodeableConcept": {
          "coding": [ {
            "system": "https://www.medizininformatik-initiative.de/fhir/ext/modul-onko/CodeSystem/mii-cs-onko-therapie-stellungzurop",
            "code": "A"
          } ]
        }
      }, {
        "url": "https://www.medizininformatik-initiative.de/fhir/ext/modul-onko/StructureDefinition/mii-ex-onko-strahlentherapie-bestrahlung",
        "extension": [ {
          "url": "Applikationsart",
          "valueCodeableConcept": {
            "coding": [ {
              "system": "https://www.medizininformatik-initiative.de/fhir/ext/modul-onko/CodeSystem/mii-cs-onko-strahlentherapie-applikationsart",
              "code": "PRCN"
            } ]
          }
        }, {
          "url": "Zielgebiet",
          "valueCodeableConcept": {
            "coding": [ {
              "system": "https://www.medizininformatik-initiative.de/fhir/ext/modul-onko/CodeSystem/mii-cs-onko-strahlentherapie-zielgebiet",
              "code": "5.1.+"
            } ]
          }
        }, {
          "url": "Zielgebiet_Lateralitaet",
          "valueCodeableConcept": {
            "coding": [ {
              "system": "https://www.medizininformatik-initiative.de/fhir/ext/modul-onko/CodeSystem/mii-cs-onko-seitenlokalisation",
              "code": "B"
            } ]
          }
        } ]
      } ],
      "identifier": [ {
        "system": "https://bzkf.github.io/obds-to-fhir/identifiers/strahlentherapie-procedure-id",
        "value": "50_1_ST_1"
      } ],
      "status": "in-progress",
      "category": {
        "coding": [ {
          "system": "http://snomed.info/sct",
          "code": "1287742003",
          "display": "Radiotherapy (procedure)"
        } ]
      },
      "code": {
        "coding": [ {
          "system": "http://fhir.de/CodeSystem/bfarm/ops",
          "version": "2025",
          "code": "8-52",
          "display": "Strahlentherapie"
        } ]
      },
      "subject": {
        "reference": "Patient/4a8639bbad9d5774878e0d6a132ece2b65912449072a6888e2028987d5d479c4"
      },
      "performedPeriod": {
        "start": "2020-10-05"
      },
      "reasonReference": [ {
        "reference": "Condition/17bc83a84fc6d9a7f9df24684aae287df117609026a237d1cf8d3fe73d1a6e39"
      } ]
    },
    "request": {
      "method": "PUT",
      "url": "Procedure/dcf6ca4b7c2edcc9f181f404ae33c3e30a055f43dd78a38bbce4f2ef353a46d4"
    }
  } ]
}