{
  "resourceType": "Bundle",
  "id": "4a8639bbad9d5774878e0d6a132ece2b65912449072a6888e2028987d5d479c4",
  "type": "transaction",
  "entry": [ {
    "fullUrl": "Patient/4a8639bbad9d5774878e0d6a132ece2b65912449072a6888e2028987d5d479c4",
    "resource": {
      "resourceType": "Patient",
      "id": "4a8639bbad9d5774878e0d6a132ece2b65912449072a6888e2028987d5d479c4",
      "meta": {
        "profile": [ "https://www.medizininformatik-initiative.de/fhir/core/modul-person/StructureDefinition/PatientPseudonymisiert" ]
      },
      "identifier": [ {
        "type": {
          "coding": [ {
            "system": "http://terminology.hl7.org/CodeSystem/v2-0203",
            "code": "MR",
            "display": "Medical record number"
          }, {
            "system": "http://terminology.hl7.org/CodeSystem/v3-ObservationValue",
            "code": "PSEUDED",
            "display": "pseudonymized"
          } ]
        },
        "system": "https://bzkf.github.io/obds-to-fhir/identifiers/patient-id",
        "value": "50"
      } ],
      "gender": "male",
      "birthDate": "1948-03-05",
      "address": [ {
        "type": "both",
        "postalCode": "30175",
        "country": "DE"
      } ]
    },
    "request": {
      "method": "PUT",
      "url": "Patient/4a8639bbad9d5774878e0d6a132ece2b65912449072a6888e2028987d5d479c4"
    }
  }, {
    "fullUrl": "Condition/17bc83a84fc6d9a7f9df24684aae287df117609026a237d1cf8d3fe73d1a6e39",
    "resource": {
      "resourceType": "Condition",
      "id": "17bc83a84fc6d9a7f9df24684aae287df117609026a237d1cf8d3fe73d1a6e39",
      "meta": {
        "profile": [ "https://www.medizininformatik-initiative.de/fhir/ext/modul-onko/StructureDefinition/mii-pr-onko-diagnose-primaertumor" ]
      },
      "extension": [ {
        "url": "https://www.medizininformatik-initiative.de/fhir/ext/modul-onko/StructureDefinition/mii-ex-onko-histology-morphology-behavior-icdo3",
        "valueCodeableConcept": {
          "coding": [ {
            "system": "http://terminology.hl7.org/CodeSystem/icd-o-3",
            "version": "31",
            "code": "8140/3"
          } ]
        }
      }, {
        "url": "http://hl7.org/fhir/StructureDefinition/condition-assertedDate",
        "valueDateTime": "2020-08-02"
      } ],
      "identifier": [ {
        "system": "https://bzkf.github.io/obds-to-fhir/identifiers/primaerdiagnose-id",
        "value": "501"
      } ],
      "verificationStatus": {
        "coding": [ {
          "system": "http://terminology.hl7.org/CodeSystem/condition-ver-status",
          "code": "confirmed"
        }, {
          "system": "https://www.medizininformatik-initiative.de/fhir/ext/modul-onko/CodeSystem/mii-cs-onko-primaertumor-diagnosesicherung",
          "code": "7"
        } ]
      },
      "code": {
        "coding": [ {
          "system": "http://fhir.de/CodeSystem/bfarm/icd-10-gm",
          "version": "2020",
          "code": "C20"
        } ]
      },
      "bodySite": [ {
        "coding": [ {
          "system": "http://terminology.hl7.org/CodeSystem/icd-o-3",
          "version": "33",
          "code": "C20.9"
        } ]
      }, {
        "coding": [ {
          "system": "https://www.medizininformatik-initiative.de/fhir/ext/modul-onko/CodeSystem/mii-cs-onko-seitenlokalisation",
          "code": "T"
        } ]
      } ],
      "subject": {
        "reference": "Patient/4a8639bbad9d5774878e0d6a132ece2b65912449072a6888e2028987d5d479c4"
      },
      "recordedDate": "2024-02-16"
    },
    "request": {
      "method": "PUT",
      "url": "Condition/17bc83a84fc6d9a7f9df24684aae287df117609026a237d1cf8d3fe73d1a6e39"
    }
  }, {
    "fullUrl": "Observation/bcd6e1b46b8ac53bb6156e6042dfab59c08efb6bb48573621810e5ba7d6e7ad0",
    "resource": {
      "resourceType": "Observation",
      "id": "bcd6e1b46b8ac53bb6156e6042dfab59c08efb6bb48573621810e5ba7d6e7ad0",
      "meta": {
        "profile": [ "https://www.medizininformatik-initiative.de/fhir/ext/modul-onko/StructureDefinition/mii-pr-onko-allgemeiner-leistungszustand-ecog" ]
      },
      "identifier": [ {
        "system": "https://bzkf.github.io/obds-to-fhir/identifiers/allgemeiner-leistungszustand-ecog-id",
        "value": "ECOG-DIA_50101"
      } ],
      "status": "final",
      "code": {
        "coding": [ {
          "system": "http://snomed.info/sct",
          "code": "423740007"
        } ]
      },
      "subject": {
        "reference": "Patient/4a8639bbad9d5774878e0d6a132ece2b65912449072a6888e2028987d5d479c4"
      },
      "focus": [ {
        "reference": "Condition/17bc83a84fc6d9a7f9df24684aae287df117609026a237d1cf8d3fe73d1a6e39"
      } ],
      "effectiveDateTime": "2020-08-02",
      "valueCodeableConcept": {
        "coding": [ {
          "system": "https://www.medizininformatik-initiative.de/fhir/ext/modul-onko/CodeSystem/mii-cs-onko-allgemeiner-leistungszustand-ecog",
          "code": "1",
          "display": "Einschränkung bei körperlicher Anstrengung, aber gehfähig; leichte körperliche Arbeit bzw. Arbeit im Sitzen (z. B. leichte Hausarbeit oder Büroarbeit) möglich (70 - 80 % nach Karnofsky)"
        } ]
      }
    },
    "request": {
      "method": "PUT",
      "url": "Observation/bcd6e1b46b8ac53bb6156e6042dfab59c08efb6bb48573621810e5ba7d6e7ad0"
    }
  }, {
    "fullUrl": "Procedure/8fdf15fcb5aa74bc961258cdb94fa024d96d29751130268e18e1127617dcec01",
    "resource": {
      "resourceType": "Procedure",
      "id": "8fdf15fcb5aa74bc961258cdb94fa024d96d29751130268e18e1127617dcec01",
      "meta": {
        "profile": [ "https://www.medizininformatik-initiative.de/fhir/ext/modul-onko/StructureDefinition/mii-pr-onko-operation" ]
      },
      "extension": [ {
        "url": "https://www.medizininformatik-initiative.de/fhir/ext/modul-onko/StructureDefinition/mii-ex-onko-operation-intention",
        "valueCodeableConcept": {
          "coding": [ {
            "system": "https://www.medizininformatik-initiative.de/fhir/ext/modul-onko/CodeSystem/mii-cs-onko-intention",
            "code": "K"
          } ]
        }
      } ],
      "identifier": [ {
        "system": "https://bzkf.github.io/obds-to-fhir/identifiers/operation-procedure-id",
        "value": "1405-484.55"
      } ],
      "status": "completed",
      "category": {
        "coding": [ {
          "system": "http://snomed.info/sct",
          "code": "387713003",
          "display": "Surgical procedure"
        } ]
      },
      "code": {
        "coding": [ {
          "system": "http://fhir.de/CodeSystem/bfarm/ops",
          "version": "2020",
          "code": "5-484.55"
        } ]
      },
      "subject": {
        "reference": "Patient/4a8639bbad9d5774878e0d6a132ece2b65912449072a6888e2028987d5d479c4"
      },
      "performedDateTime": "2020-08-31",
      "reasonReference": [ {
        "reference": "Condition/17bc83a84fc6d9a7f9df24684aae287df117609026a237d1cf8d3fe73d1a6e39"
      } ],
      "outcome": {
        "coding": [ {
          "system": "https://www.medizininformatik-initiative.de/fhir/ext/modul-onko/CodeSystem/mii-cs-onko-residualstatus",
          "code": "R0"
        } ]
      }
    },
    "request": {
      "method": "PUT",
      "url": "Procedure/8fdf15fcb5aa74bc961258cdb94fa024d96d29751130268e18e1127617dcec01"
    }
  }, {
    "fullUrl": "Procedure/79bc42d887532b6b073892d8c9e4daacb236b87864f90ab64db155e758bfe5fa",
    "resource": {
      "resourceType": "Procedure",
      "id": "79bc42d887532b6b073892d8c9e4daacb236b87864f90ab64db155e758bfe5fa",
      "meta": {
        "profile": [ "https://www.medizininformatik-initiative.de/fhir/ext/modul-onko/StructureDefinition/mii-pr-onko-operation" ]
      },
      "extension": [ {
        "url": "https://www.medizininformatik-initiative.de/fhir/ext/modul-onko/StructureDefinition/mii-ex-onko-operation-intention",
        "valueCodeableConcept": {
          "coding": [ {
            "system": "https://www.medizininformatik-initiative.de/fhir/ext/modul-onko/CodeSystem/mii-cs-onko-intention",
            "code": "K"
          } ]
        }
      } ],
      "identifier": [ {
        "system": "https://bzkf.github.io/obds-to-fhir/identifiers/operation-procedure-id",
        "value": "1405-402.a"
      } ],
      "status": "completed",
      "category": {
        "coding": [ {
          "system": "http://snomed.info/sct",
          "code": "387713003",
          "display": "Surgical procedure"
        } ]
      },
      "code": {
        "coding": [ {
          "system": "http://fhir.de/CodeSystem/bfarm/ops",
          "version": "2020",
          "code": "5-402.a"
        } ]
      },
      "subject": {
        "reference": "Patient/4a8639bbad9d5774878e0d6a132ece2b65912449072a6888e2028987d5d479c4"
      },
      "performedDateTime": "2020-08-31",
      "reasonReference": [ {
        "reference": "Condition/17bc83a84fc6d9a7f9df24684aae287df117609026a237d1cf8d3fe73d1a6e39"
      } ],
      "outcome": {
        "coding": [ {
          "system": "https://www.medizininformatik-initiative.de/fhir/ext/modul-onko/CodeSystem/mii-cs-onko-residualstatus",
          "code": "R0"
        } ]
      }
    },
    "request": {
      "method": "PUT",
      "url": "Procedure/79bc42d887532b6b073892d8c9e4daacb236b87864f90ab64db155e758bfe5fa"
    }
  }, {
    "fullUrl": "Observation/a30af108fe299ccd35464232c6f48499d73f2bf2fb6be244a50531850ededcb7",
    "resource": {
      "resourceType": "Observation",
      "id": "a30af108fe299ccd35464232c6f48499d73f2bf2fb6be244a50531850ededcb7",
      "identifier": [ {
        "system": "https://bzkf.github.io/obds-to-fhir/identifiers/residualstatus-observation-id",
        "value": "140"
      } ],
      "status": "final",
      "code": {
        "coding": [ {
          "system": "http://loinc.org",
          "code": "84892-9"
        } ]
      },
      "subject": {
        "reference": "Patient/4a8639bbad9d5774878e0d6a132ece2b65912449072a6888e2028987d5d479c4"
      },
      "focus": [ {
        "reference": "Condition/17bc83a84fc6d9a7f9df24684aae287df117609026a237d1cf8d3fe73d1a6e39"
      } ],
      "effectiveDateTime": "2020-08-31",
      "valueCodeableConcept": {
        "coding": [ {
          "system": "https://www.medizininformatik-initiative.de/fhir/ext/modul-onko/CodeSystem/mii-cs-onko-residualstatus",
          "code": "R0"
        } ]
      }
    },
    "request": {
      "method": "PUT",
      "url": "Observation/a30af108fe299ccd35464232c6f48499d73f2bf2fb6be244a50531850ededcb7"
    }
  }, {
    "fullUrl": "Procedure/f6ed3b0fa56f326e5a7aec89c9c57decd6bef29b24da97bb20060c0b6a5baebe",
    "resource": {
      "resourceType": "Procedure",
      "id": "f6ed3b0fa56f326e5a7aec89c9c57decd6bef29b24da97bb20060c0b6a5baebe",
      "meta": {
        "profile": [ "https://www.medizininformatik-initiative.de/fhir/ext/modul-onko/StructureDefinition/mii-pr-onko-systemische-therapie" ]
      },
      "extension": [ {
        "url": "https://www.medizininformatik-initiative.de/fhir/ext/modul-onko/StructureDefinition/mii-ex-onko-systemische-therapie-intention",
        "valueCodeableConcept": {
          "coding": [ {
            "system": "https://www.medizininformatik-initiative.de/fhir/ext/modul-onko/CodeSystem/mii-cs-onko-intention",
            "code": "K"
          } ]
        }
      } ],
      "identifier": [ {
        "system": "https://bzkf.github.io/obds-to-fhir/identifiers/systemische-therapie-procedure-id",
        "value": "50_1_IN_1"
      } ],
      "status": "in-progress",
      "category": {
        "coding": [ {
          "system": "http://snomed.info/sct",
          "_code": {
            "extension": [ {
              "url": "http://hl7.org/fhir/StructureDefinition/data-absent-reason",
              "valueCode": "unknown"
            } ]
          }
        } ]
      },
      "code": {
        "coding": [ {
          "system": "http://fhir.de/CodeSystem/bfarm/ops",
          "_code": {
            "extension": [ {
              "url": "http://hl7.org/fhir/StructureDefinition/data-absent-reason",
              "valueCode": "unknown"
            } ]
          }
        }, {
          "system": "https://www.medizininformatik-initiative.de/fhir/ext/modul-onko/CodeSystem/mii-cs-onko-therapie-typ",
          "code": "CH"
        } ]
      },
      "subject": {
        "reference": "Patient/4a8639bbad9d5774878e0d6a132ece2b65912449072a6888e2028987d5d479c4"
      },
      "performedPeriod": {
        "start": "2020-09-21"
      }
    },
    "request": {
      "method": "PUT",
      "url": "Procedure/f6ed3b0fa56f326e5a7aec89c9c57decd6bef29b24da97bb20060c0b6a5baebe"
    }
  }, {
    "fullUrl": "MedicationStatement/28624a0c37b503a71f85a8c75b59a64f0a0d81c62336eaafbbfc8d6b8cfc6813",
    "resource": {
      "resourceType": "MedicationStatement",
      "id": "28624a0c37b503a71f85a8c75b59a64f0a0d81c62336eaafbbfc8d6b8cfc6813",
      "meta": {
        "profile": [ "https://www.medizininformatik-initiative.de/fhir/core/modul-medikation/StructureDefinition/MedicationStatement" ]
      },
      "identifier": [ {
        "system": "https://bzkf.github.io/obds-to-fhir/identifiers/systemische-therapie-medication-statement-id",
        "value": "50_1_IN_1_Folinsure_1a0d"
      } ],
      "partOf": [ {
        "reference": "Procedure/f6ed3b0fa56f326e5a7aec89c9c57decd6bef29b24da97bb20060c0b6a5baebe"
      } ],
      "status": "active",
      "medicationCodeableConcept": {
        "text": "Folinsäure"
      },
      "subject": {
        "reference": "Patient/4a8639bbad9d5774878e0d6a132ece2b65912449072a6888e2028987d5d479c4"
      },
      "effectivePeriod": {
        "start": "2020-09-21"
      }
    },
    "request": {
      "method": "PUT",
      "url": "MedicationStatement/28624a0c37b503a71f85a8c75b59a64f0a0d81c62336eaafbbfc8d6b8cfc6813"
    }
  }, {
    "fullUrl": "MedicationStatement/e01692be68e07b519fe8d6f8ae1ffd30e356c52261bbe222e4e2cd70410779a9",
    "resource": {
      "resourceType": "MedicationStatement",
      "id": "e01692be68e07b519fe8d6f8ae1ffd30e356c52261bbe222e4e2cd70410779a9",
      "meta": {
        "profile": [ "https://www.medizininformatik-initiative.de/fhir/core/modul-medikation/StructureDefinition/MedicationStatement" ]
      },
      "identifier": [ {
        "system": "https://bzkf.github.io/obds-to-fhir/identifiers/systemische-therapie-medication-statement-id",
        "value": "50_1_IN_1_5Fluorouracil_d603"
      } ],
      "partOf": [ {
        "reference": "Procedure/f6ed3b0fa56f326e5a7aec89c9c57decd6bef29b24da97bb20060c0b6a5baebe"
      } ],
      "status": "active",
      "medicationCodeableConcept": {
        "text": "5-Fluorouracil"
      },
      "subject": {
        "reference": "Patient/4a8639bbad9d5774878e0d6a132ece2b65912449072a6888e2028987d5d479c4"
      },
      "effectivePeriod": {
        "start": "2020-09-21"
      }
    },
    "request": {
      "method": "PUT",
      "url": "MedicationStatement/e01692be68e07b519fe8d6f8ae1ffd30e356c52261bbe222e4e2cd70410779a9"
    }
  }, {
    "fullUrl": "MedicationStatement/309137e2e12ef67315353efda404c16a4faf929a97a94b919595e0571a0d5fb4",
    "resource": {
      "resourceType": "MedicationStatement",
      "id": "309137e2e12ef67315353efda404c16a4faf929a97a94b919595e0571a0d5fb4",
      "meta": {
        "profile": [ "https://www.medizininformatik-initiative.de/fhir/core/modul-medikation/StructureDefinition/MedicationStatement" ]
      },
      "identifier": [ {
        "system": "https://bzkf.github.io/obds-to-fhir/identifiers/systemische-therapie-medication-statement-id",
        "value": "50_1_IN_1_Oxaliplatin_11c8"
      } ],
      "partOf": [ {
        "reference": "Procedure/f6ed3b0fa56f326e5a7aec89c9c57decd6bef29b24da97bb20060c0b6a5baebe"
      } ],
      "status": "active",
      "medicationCodeableConcept": {
        "text": "Oxaliplatin"
      },
      "subject": {
        "reference": "Patient/4a8639bbad9d5774878e0d6a132ece2b65912449072a6888e2028987d5d479c4"
      },
      "effectivePeriod": {
        "start": "2020-09-21"
      }
    },
    "request": {
      "method": "PUT",
      "url": "MedicationStatement/309137e2e12ef67315353efda404c16a4faf929a97a94b919595e0571a0d5fb4"
    }
  }, {
    "fullUrl": "Procedure/dcf6ca4b7c2edcc9f181f404ae33c3e30a055f43dd78a38bbce4f2ef353a46d4",
    "resource": {
      "resourceType": "Procedure",
      "id": "dcf6ca4b7c2edcc9f181f404ae33c3e30a055f43dd78a38bbce4f2ef353a46d4",
      "meta": {
        "profile": [ "https://www.medizininformatik-initiative.de/fhir/ext/modul-onko/StructureDefinition/mii-pr-onko-strahlentherapie" ]
      },
      "extension": [ {
        "url": "https://www.medizininformatik-initiative.de/fhir/ext/modul-onko/StructureDefinition/mii-ex-onko-strahlentherapie-intention",
        "valueCodeableConcept": {
          "coding": [ {
            "system": "https://www.medizininformatik-initiative.de/fhir/ext/modul-onko/CodeSystem/mii-cs-onko-intention",
            "code": "P"
          } ]
        }
      }, {
        "url": "https://www.medizininformatik-initiative.de/fhir/ext/modul-onko/StructureDefinition/mii-ex-onko-strahlentherapie-bestrahlung",
        "extension": [ {
          "url": "Applikationsart",
          "valueCodeableConcept": {
            "coding": [ {
              "system": "https://www.medizininformatik-initiative.de/fhir/ext/modul-onko/CodeSystem/mii-cs-onko-strahlentherapie-applikationsart",
              "code": "P-ST"
            } ]
          }
        }, {
          "url": "Strahlenart",
          "valueCodeableConcept": {
            "coding": [ {
              "system": "https://www.medizininformatik-initiative.de/fhir/ext/modul-onko/CodeSystem/mii-cs-onko-strahlentherapie-strahlenart",
              "code": "UH"
            } ]
          }
        }, {
          "url": "Zielgebiet",
          "valueCodeableConcept": {
            "coding": [ {
              "system": "https://www.medizininformatik-initiative.de/fhir/ext/modul-onko/CodeSystem/mii-cs-onko-strahlentherapie-zielgebiet",
              "code": "3.4"
            } ]
          }
        } ]
      } ],
      "identifier": [ {
        "system": "https://bzkf.github.io/obds-to-fhir/identifiers/strahlentherapie-procedure-id",
        "value": "50_1_ST_1"
      } ],
      "status": "in-progress",
      "category": {
        "coding": [ {
          "system": "http://snomed.info/sct",
          "code": "277132007",
          "display": "Therapeutic procedure"
        } ]
      },
      "code": {
        "coding": [ {
          "system": "http://fhir.de/CodeSystem/bfarm/ops",
          "_code": {
            "extension": [ {
              "url": "http://hl7.org/fhir/StructureDefinition/data-absent-reason",
              "valueCode": "unknown"
            } ]
          }
        } ]
      },
      "subject": {
        "reference": "Patient/4a8639bbad9d5774878e0d6a132ece2b65912449072a6888e2028987d5d479c4"
      },
      "performedPeriod": {
        "_start": {
          "extension": [ {
            "url": "http://hl7.org/fhir/StructureDefinition/data-absent-reason",
            "valueCode": "unknown"
          } ]
        }
      }
    },
    "request": {
      "method": "PUT",
      "url": "Procedure/dcf6ca4b7c2edcc9f181f404ae33c3e30a055f43dd78a38bbce4f2ef353a46d4"
    }
  } ]
}