{
  "resourceType": "Bundle",
  "id": "17fd07c897c1b71242be625380c0f570dd1262c3e8e6716c09819705494d65b5",
  "type": "transaction",
  "entry": [ {
    "fullUrl": "Patient/17fd07c897c1b71242be625380c0f570dd1262c3e8e6716c09819705494d65b5",
    "resource": {
      "resourceType": "Patient",
      "id": "17fd07c897c1b71242be625380c0f570dd1262c3e8e6716c09819705494d65b5",
      "meta": {
        "profile": [ "https://www.medizininformatik-initiative.de/fhir/core/modul-person/StructureDefinition/PatientPseudonymisiert" ]
      },
      "identifier": [ {
        "type": {
          "coding": [ {
            "system": "http://terminology.hl7.org/CodeSystem/v2-0203",
            "code": "MR",
            "display": "Medical record number"
          }, {
            "system": "http://terminology.hl7.org/CodeSystem/v3-ObservationValue",
            "code": "PSEUDED",
            "display": "pseudonymized"
          } ]
        },
        "system": "https://bzkf.github.io/obds-to-fhir/identifiers/patient-id",
        "value": "40"
      } ],
      "gender": "female",
      "birthDate": "1980-01-01",
      "address": [ {
        "type": "both",
        "postalCode": "98765",
        "country": "DE"
      } ]
    },
    "request": {
      "method": "PUT",
      "url": "Patient/17fd07c897c1b71242be625380c0f570dd1262c3e8e6716c09819705494d65b5"
    }
  }, {
    "fullUrl": "Specimen/f88f01f8376de7db60d4497121febc5659d9877f9268d25f6ca240fac028dc16",
    "resource": {
      "resourceType": "Specimen",
      "id": "f88f01f8376de7db60d4497121febc5659d9877f9268d25f6ca240fac028dc16",
      "meta": {
        "profile": [ "https://www.medizininformatik-initiative.de/fhir/ext/modul-onko/StructureDefinition/mii-pr-onko-specimen" ]
      },
      "identifier": [ {
        "system": "https://bzkf.github.io/obds-to-fhir/identifiers/specimen-id",
        "value": "269"
      } ],
      "accessionIdentifier": {
        "value": "H000520-22"
      },
      "subject": {
        "reference": "Patient/17fd07c897c1b71242be625380c0f570dd1262c3e8e6716c09819705494d65b5"
      },
      "collection": {
        "collectedDateTime": "2022-08-05"
      }
    },
    "request": {
      "method": "PUT",
      "url": "Specimen/f88f01f8376de7db60d4497121febc5659d9877f9268d25f6ca240fac028dc16"
    }
  }, {
    "fullUrl": "Observation/1a3ac3570b92e29785d725277d0a2a3162543b7c32f54c14cc991a885bdb3637",
    "resource": {
      "resourceType": "Observation",
      "id": "1a3ac3570b92e29785d725277d0a2a3162543b7c32f54c14cc991a885bdb3637",
      "meta": {
        "profile": [ "https://www.medizininformatik-initiative.de/fhir/ext/modul-onko/StructureDefinition/mii-pr-onko-histologie-icdo3" ]
      },
      "identifier": [ {
        "system": "https://bzkf.github.io/obds-to-fhir/identifiers/observation-histologie-id",
        "value": "269_ICDO3_8500/3"
      } ],
      "status": "final",
      "code": {
        "coding": [ {
          "system": "http://loinc.org",
          "code": "59847-4"
        } ]
      },
      "subject": {
        "reference": "Patient/17fd07c897c1b71242be625380c0f570dd1262c3e8e6716c09819705494d65b5"
      },
      "focus": [ {
        "reference": "Condition/5d2cdde0faa8926327a75daff8ae2c78751648e0c50c975a5583e637c351850c"
      } ],
      "effectiveDateTime": "2022-08-05",
      "valueCodeableConcept": {
        "coding": [ {
          "system": "http://terminology.hl7.org/CodeSystem/icd-o-3",
          "version": "33",
          "code": "8500/3"
        } ],
        "text": "Invasives duktales Karzinom o.n.A."
      },
      "specimen": {
        "reference": "Specimen/f88f01f8376de7db60d4497121febc5659d9877f9268d25f6ca240fac028dc16"
      }
    },
    "request": {
      "method": "PUT",
      "url": "Observation/1a3ac3570b92e29785d725277d0a2a3162543b7c32f54c14cc991a885bdb3637"
    }
  }, {
    "fullUrl": "Observation/36dd58484e6839119345a05965570b7d493bcc3ee5e9bc38faae933d9c37b906",
    "resource": {
      "resourceType": "Observation",
      "id": "36dd58484e6839119345a05965570b7d493bcc3ee5e9bc38faae933d9c37b906",
      "meta": {
        "profile": [ "https://www.medizininformatik-initiative.de/fhir/ext/modul-onko/StructureDefinition/mii-pr-onko-grading" ]
      },
      "identifier": [ {
        "system": "https://bzkf.github.io/obds-to-fhir/identifiers/grading-observation-id",
        "value": "269_Grading"
      } ],
      "status": "final",
      "category": [ {
        "coding": [ {
          "system": "http://terminology.hl7.org/CodeSystem/observation-category",
          "code": "laboratory"
        } ]
      } ],
      "code": {
        "coding": [ {
          "system": "http://loinc.org",
          "code": "33732-9"
        }, {
          "system": "http://snomed.info/sct",
          "code": "371469007"
        } ]
      },
      "subject": {
        "reference": "Patient/17fd07c897c1b71242be625380c0f570dd1262c3e8e6716c09819705494d65b5"
      },
      "focus": [ {
        "reference": "Condition/5d2cdde0faa8926327a75daff8ae2c78751648e0c50c975a5583e637c351850c"
      } ],
      "effectiveDateTime": "2022-08-05",
      "valueCodeableConcept": {
        "coding": [ {
          "system": "https://www.medizininformatik-initiative.de/fhir/ext/modul-onko/CodeSystem/mii-cs-onko-grading",
          "code": "3"
        } ]
      },
      "specimen": {
        "reference": "Specimen/f88f01f8376de7db60d4497121febc5659d9877f9268d25f6ca240fac028dc16"
      }
    },
    "request": {
      "method": "PUT",
      "url": "Observation/36dd58484e6839119345a05965570b7d493bcc3ee5e9bc38faae933d9c37b906"
    }
  }, {
    "fullUrl": "Observation/ae9e3f9f85a322a386aeff9865ec655a895363dce01ef7b3c0bbe18f62f0a0d5",
    "resource": {
      "resourceType": "Observation",
      "id": "ae9e3f9f85a322a386aeff9865ec655a895363dce01ef7b3c0bbe18f62f0a0d5",
      "meta": {
        "profile": [ "https://www.medizininformatik-initiative.de/fhir/ext/modul-onko/StructureDefinition/mii-pr-onko-anzahl-befallene-lymphknoten" ]
      },
      "identifier": [ {
        "system": "https://bzkf.github.io/obds-to-fhir/identifiers/observation-histologie-id",
        "value": "269_befallen"
      } ],
      "status": "final",
      "category": [ {
        "coding": [ {
          "system": "http://terminology.hl7.org/CodeSystem/observation-category",
          "code": "laboratory"
        } ]
      } ],
      "code": {
        "coding": [ {
          "system": "http://loinc.org",
          "code": "21893-3"
        }, {
          "system": "http://snomed.info/sct",
          "code": "443527007"
        } ]
      },
      "subject": {
        "reference": "Patient/17fd07c897c1b71242be625380c0f570dd1262c3e8e6716c09819705494d65b5"
      },
      "focus": [ {
        "reference": "Condition/5d2cdde0faa8926327a75daff8ae2c78751648e0c50c975a5583e637c351850c"
      } ],
      "effectiveDateTime": "2022-08-05",
      "valueQuantity": {
        "value": 3,
        "unit": "#",
        "system": "http://unitsofmeasure.org",
        "code": "1"
      },
      "specimen": {
        "reference": "Specimen/f88f01f8376de7db60d4497121febc5659d9877f9268d25f6ca240fac028dc16"
      }
    },
    "request": {
      "method": "PUT",
      "url": "Observation/ae9e3f9f85a322a386aeff9865ec655a895363dce01ef7b3c0bbe18f62f0a0d5"
    }
  }, {
    "fullUrl": "Observation/0d6275d20e331e61e9a435c2a2ce8906fde7507e1b96e28aaa804f4ac5e31ca0",
    "resource": {
      "resourceType": "Observation",
      "id": "0d6275d20e331e61e9a435c2a2ce8906fde7507e1b96e28aaa804f4ac5e31ca0",
      "meta": {
        "profile": [ "https://www.medizininformatik-initiative.de/fhir/ext/modul-onko/StructureDefinition/mii-pr-onko-anzahl-untersuchte-lymphknoten" ]
      },
      "identifier": [ {
        "system": "https://bzkf.github.io/obds-to-fhir/identifiers/observation-histologie-id",
        "value": "269_untersucht"
      } ],
      "status": "final",
      "category": [ {
        "coding": [ {
          "system": "http://terminology.hl7.org/CodeSystem/observation-category",
          "code": "laboratory"
        } ]
      } ],
      "code": {
        "coding": [ {
          "system": "http://loinc.org",
          "code": "21894-1"
        }, {
          "system": "http://snomed.info/sct",
          "code": "444025001"
        } ]
      },
      "subject": {
        "reference": "Patient/17fd07c897c1b71242be625380c0f570dd1262c3e8e6716c09819705494d65b5"
      },
      "focus": [ {
        "reference": "Condition/5d2cdde0faa8926327a75daff8ae2c78751648e0c50c975a5583e637c351850c"
      } ],
      "effectiveDateTime": "2022-08-05",
      "valueQuantity": {
        "value": 6,
        "unit": "#",
        "system": "http://unitsofmeasure.org",
        "code": "1"
      },
      "specimen": {
        "reference": "Specimen/f88f01f8376de7db60d4497121febc5659d9877f9268d25f6ca240fac028dc16"
      }
    },
    "request": {
      "method": "PUT",
      "url": "Observation/0d6275d20e331e61e9a435c2a2ce8906fde7507e1b96e28aaa804f4ac5e31ca0"
    }
  }, {
    "fullUrl": "Observation/b8b50be71023a843c09a6000c68019843fa231afbb4a31d878ce4df5f144363f",
    "resource": {
      "resourceType": "Observation",
      "id": "b8b50be71023a843c09a6000c68019843fa231afbb4a31d878ce4df5f144363f",
      "meta": {
        "profile": [ "https://www.medizininformatik-initiative.de/fhir/ext/modul-onko/StructureDefinition/mii-pr-onko-anzahl-befallene-sentinel-lymphknoten" ]
      },
      "identifier": [ {
        "system": "https://bzkf.github.io/obds-to-fhir/identifiers/observation-histologie-id",
        "value": "269_befallen_sentinel"
      } ],
      "status": "final",
      "category": [ {
        "coding": [ {
          "system": "http://terminology.hl7.org/CodeSystem/observation-category",
          "code": "laboratory"
        } ]
      } ],
      "code": {
        "coding": [ {
          "system": "http://loinc.org",
          "code": "92832-5"
        }, {
          "system": "http://snomed.info/sct",
          "code": "1264491009"
        } ]
      },
      "subject": {
        "reference": "Patient/17fd07c897c1b71242be625380c0f570dd1262c3e8e6716c09819705494d65b5"
      },
      "focus": [ {
        "reference": "Condition/5d2cdde0faa8926327a75daff8ae2c78751648e0c50c975a5583e637c351850c"
      } ],
      "effectiveDateTime": "2022-08-05",
      "valueQuantity": {
        "value": 1,
        "unit": "#",
        "system": "http://unitsofmeasure.org",
        "code": "1"
      },
      "specimen": {
        "reference": "Specimen/f88f01f8376de7db60d4497121febc5659d9877f9268d25f6ca240fac028dc16"
      }
    },
    "request": {
      "method": "PUT",
      "url": "Observation/b8b50be71023a843c09a6000c68019843fa231afbb4a31d878ce4df5f144363f"
    }
  }, {
    "fullUrl": "Observation/db8a746bb6639e08043acf64d6d6a98296c714100692ef06b6d4536c1199912e",
    "resource": {
      "resourceType": "Observation",
      "id": "db8a746bb6639e08043acf64d6d6a98296c714100692ef06b6d4536c1199912e",
      "meta": {
        "profile": [ "https://www.medizininformatik-initiative.de/fhir/ext/modul-onko/StructureDefinition/mii-pr-onko-anzahl-untersuchte-sentinel-lymphknoten" ]
      },
      "identifier": [ {
        "system": "https://bzkf.github.io/obds-to-fhir/identifiers/observation-histologie-id",
        "value": "269_untersucht_sentinel"
      } ],
      "status": "final",
      "category": [ {
        "coding": [ {
          "system": "http://terminology.hl7.org/CodeSystem/observation-category",
          "code": "laboratory"
        } ]
      } ],
      "code": {
        "coding": [ {
          "system": "http://loinc.org",
          "code": "85347-3"
        }, {
          "system": "http://snomed.info/sct",
          "code": "444411008"
        } ]
      },
      "subject": {
        "reference": "Patient/17fd07c897c1b71242be625380c0f570dd1262c3e8e6716c09819705494d65b5"
      },
      "focus": [ {
        "reference": "Condition/5d2cdde0faa8926327a75daff8ae2c78751648e0c50c975a5583e637c351850c"
      } ],
      "effectiveDateTime": "2022-08-05",
      "valueQuantity": {
        "value": 2,
        "unit": "#",
        "system": "http://unitsofmeasure.org",
        "code": "1"
      },
      "specimen": {
        "reference": "Specimen/f88f01f8376de7db60d4497121febc5659d9877f9268d25f6ca240fac028dc16"
      }
    },
    "request": {
      "method": "PUT",
      "url": "Observation/db8a746bb6639e08043acf64d6d6a98296c714100692ef06b6d4536c1199912e"
    }
  }, {
    "fullUrl": "Observation/7df77964205346253bbdb46fe59d65a1ba53c8d67248d60995a97143b00fdffb",
    "resource": {
      "resourceType": "Observation",
      "id": "7df77964205346253bbdb46fe59d65a1ba53c8d67248d60995a97143b00fdffb",
      "meta": {
        "profile": [ "https://www.medizininformatik-initiative.de/fhir/ext/modul-onko/StructureDefinition/mii-pr-onko-fernmetastasen" ]
      },
      "identifier": [ {
        "system": "https://bzkf.github.io/obds-to-fhir/identifiers/fernmetastasen-id",
        "value": "PAT_70101-Pathologie-0"
      } ],
      "status": "final",
      "code": {
        "coding": [ {
          "system": "http://snomed.info/sct",
          "code": "385421009"
        } ]
      },
      "subject": {
        "reference": "Patient/17fd07c897c1b71242be625380c0f570dd1262c3e8e6716c09819705494d65b5"
      },
      "focus": [ {
        "reference": "Condition/5d2cdde0faa8926327a75daff8ae2c78751648e0c50c975a5583e637c351850c"
      } ],
      "effectiveDateTime": "2022-08-05",
      "valueCodeableConcept": {
        "coding": [ {
          "system": "https://www.medizininformatik-initiative.de/fhir/ext/modul-onko/CodeSystem/mii-cs-onko-fernmetastasen",
          "code": "PUL"
        } ]
      }
    },
    "request": {
      "method": "PUT",
      "url": "Observation/7df77964205346253bbdb46fe59d65a1ba53c8d67248d60995a97143b00fdffb"
    }
  }, {
    "fullUrl": "Observation/ebb1dbcacb9599c1e16de05fdd9473edcc1722fd5f201ff4e76bef98da1173f8",
    "resource": {
      "resourceType": "Observation",
      "id": "ebb1dbcacb9599c1e16de05fdd9473edcc1722fd5f201ff4e76bef98da1173f8",
      "meta": {
        "profile": [ "https://www.medizininformatik-initiative.de/fhir/ext/modul-onko/StructureDefinition/mii-pr-onko-genetische-variante" ]
      },
      "identifier": [ {
        "system": "https://bzkf.github.io/obds-to-fhir/identifiers/genetische-variante-id",
        "value": "GenetischeAusprägung-PathologiePAT_70101M0"
      } ],
      "status": "final",
      "category": [ {
        "coding": [ {
          "system": "http://terminology.hl7.org/CodeSystem/observation-category",
          "code": "laboratory"
        } ]
      } ],
      "code": {
        "coding": [ {
          "system": "http://loinc.org",
          "code": "69548-6"
        } ]
      },
      "subject": {
        "reference": "Patient/17fd07c897c1b71242be625380c0f570dd1262c3e8e6716c09819705494d65b5"
      },
      "focus": [ {
        "reference": "Condition/5d2cdde0faa8926327a75daff8ae2c78751648e0c50c975a5583e637c351850c"
      } ],
      "effectiveDateTime": "2022-08-05",
      "interpretation": [ {
        "coding": [ {
          "system": "https://www.medizininformatik-initiative.de/fhir/ext/modul-onko/CodeSystem/mii-cs-onko-genetische-variante-auspraegung",
          "code": "M"
        } ]
      } ],
      "note": [ {
        "text": "BRCA 1"
      } ]
    },
    "request": {
      "method": "PUT",
      "url": "Observation/ebb1dbcacb9599c1e16de05fdd9473edcc1722fd5f201ff4e76bef98da1173f8"
    }
  }, {
    "fullUrl": "Observation/775f8a840ac8130756c0b865c66951d04022b98e99f1c6629a2fcbcd03348d3d",
    "resource": {
      "resourceType": "Observation",
      "id": "775f8a840ac8130756c0b865c66951d04022b98e99f1c6629a2fcbcd03348d3d",
      "meta": {
        "profile": [ "https://www.medizininformatik-initiative.de/fhir/ext/modul-onko/StructureDefinition/mii-pr-onko-genetische-variante" ]
      },
      "identifier": [ {
        "system": "https://bzkf.github.io/obds-to-fhir/identifiers/genetische-variante-id",
        "value": "GenetischeAusprägung-PathologiePAT_701011"
      } ],
      "status": "final",
      "category": [ {
        "coding": [ {
          "system": "http://terminology.hl7.org/CodeSystem/observation-category",
          "code": "laboratory"
        } ]
      } ],
      "code": {
        "coding": [ {
          "system": "http://loinc.org",
          "code": "69548-6"
        } ]
      },
      "subject": {
        "reference": "Patient/17fd07c897c1b71242be625380c0f570dd1262c3e8e6716c09819705494d65b5"
      },
      "focus": [ {
        "reference": "Condition/5d2cdde0faa8926327a75daff8ae2c78751648e0c50c975a5583e637c351850c"
      } ],
      "effectiveDateTime": "2022-08-05",
      "interpretation": [ {
        "coding": [ {
          "system": "https://www.medizininformatik-initiative.de/fhir/ext/modul-onko/CodeSystem/mii-cs-onko-genetische-variante-auspraegung",
          "code": "S"
        } ],
        "text": "Translation"
      } ],
      "note": [ {
        "text": "BRCA 2"
      } ]
    },
    "request": {
      "method": "PUT",
      "url": "Observation/775f8a840ac8130756c0b865c66951d04022b98e99f1c6629a2fcbcd03348d3d"
    }
  }, {
    "fullUrl": "DiagnosticReport/dbd58c18b6360f5db3b0e6595a976abb94a71c176689e2dc30a156fde98fa20b",
    "resource": {
      "resourceType": "DiagnosticReport",
      "id": "dbd58c18b6360f5db3b0e6595a976abb94a71c176689e2dc30a156fde98fa20b",
      "identifier": [ {
        "system": "https://bzkf.github.io/obds-to-fhir/identifiers/histologiebefund-diagnostic-report-id",
        "value": "PAT_70101"
      } ],
      "status": "final",
      "code": {
        "coding": [ {
          "system": "http://loinc.org",
          "code": "22034-3"
        } ]
      },
      "subject": {
        "reference": "Patient/17fd07c897c1b71242be625380c0f570dd1262c3e8e6716c09819705494d65b5"
      },
      "specimen": [ {
        "reference": "Specimen/f88f01f8376de7db60d4497121febc5659d9877f9268d25f6ca240fac028dc16"
      } ],
      "conclusion": "Lorem ipsum dolor sit amet, consetetur sadipscing elitr, sed diam nonumy eirmod tempor invidunt ut labore et dolore magna aliquyam erat, sed diam voluptua. At vero eos et accusam et justo duo dolores et ea rebum. Stet clita kasd gubergren, no sea takimata sanctus est Lorem ipsum dolor sit amet. Lorem ipsum dolor sit amet, consetetur sadipscing elitr, sed diam nonumy eirmod tempor invidunt ut labore et dolore magna aliquyam erat, sed diam voluptua. At vero eos et accusam et justo duo dolores et ea rebum. Stet clita kasd gubergren, no sea takimata sanctus est Lorem ipsum dolor sit amet."
    },
    "request": {
      "method": "PUT",
      "url": "DiagnosticReport/dbd58c18b6360f5db3b0e6595a976abb94a71c176689e2dc30a156fde98fa20b"
    }
  }, {
    "fullUrl": "Observation/7a68d8b2b6218a2b7308f67d87130d03faeec17cc979952a7ae18b5b3117973c",
    "resource": {
      "resourceType": "Observation",
      "id": "7a68d8b2b6218a2b7308f67d87130d03faeec17cc979952a7ae18b5b3117973c",
      "meta": {
        "profile": [ "https://www.medizininformatik-initiative.de/fhir/ext/modul-onko/StructureDefinition/mii-pr-onko-genetische-variante" ]
      },
      "identifier": [ {
        "system": "https://bzkf.github.io/obds-to-fhir/identifiers/genetische-variante-id",
        "value": "GenetischeAusprägung-PathologiePAT_70103W0"
      } ],
      "status": "final",
      "category": [ {
        "coding": [ {
          "system": "http://terminology.hl7.org/CodeSystem/observation-category",
          "code": "laboratory"
        } ]
      } ],
      "code": {
        "coding": [ {
          "system": "http://loinc.org",
          "code": "69548-6"
        } ]
      },
      "subject": {
        "reference": "Patient/17fd07c897c1b71242be625380c0f570dd1262c3e8e6716c09819705494d65b5"
      },
      "focus": [ {
        "reference": "Condition/4fd5dd1f0a05a9351807bb36cef447803c5a4528f191967dc0350e7bef4dadda"
      } ],
      "effectiveDateTime": "2020-01-13",
      "interpretation": [ {
        "coding": [ {
          "system": "https://www.medizininformatik-initiative.de/fhir/ext/modul-onko/CodeSystem/mii-cs-onko-genetische-variante-auspraegung",
          "code": "W"
        } ]
      } ],
      "note": [ {
        "text": "KRAS"
      } ]
    },
    "request": {
      "method": "PUT",
      "url": "Observation/7a68d8b2b6218a2b7308f67d87130d03faeec17cc979952a7ae18b5b3117973c"
    }
  }, {
    "fullUrl": "Observation/2725edd36b8625a063c41b4cc0e47c3932a3a11925037fcf953424cf7636de71",
    "resource": {
      "resourceType": "Observation",
      "id": "2725edd36b8625a063c41b4cc0e47c3932a3a11925037fcf953424cf7636de71",
      "meta": {
        "profile": [ "https://www.medizininformatik-initiative.de/fhir/ext/modul-onko/StructureDefinition/mii-pr-onko-genetische-variante" ]
      },
      "identifier": [ {
        "system": "https://bzkf.github.io/obds-to-fhir/identifiers/genetische-variante-id",
        "value": "GenetischeAusprägung-PathologiePAT_701031"
      } ],
      "status": "final",
      "category": [ {
        "coding": [ {
          "system": "http://terminology.hl7.org/CodeSystem/observation-category",
          "code": "laboratory"
        } ]
      } ],
      "code": {
        "coding": [ {
          "system": "http://loinc.org",
          "code": "69548-6"
        } ]
      },
      "subject": {
        "reference": "Patient/17fd07c897c1b71242be625380c0f570dd1262c3e8e6716c09819705494d65b5"
      },
      "focus": [ {
        "reference": "Condition/4fd5dd1f0a05a9351807bb36cef447803c5a4528f191967dc0350e7bef4dadda"
      } ],
      "effectiveDateTime": "2020-01-13",
      "interpretation": [ {
        "coding": [ {
          "system": "https://www.medizininformatik-initiative.de/fhir/ext/modul-onko/CodeSystem/mii-cs-onko-genetische-variante-auspraegung",
          "code": "S"
        } ],
        "text": "foo"
      } ],
      "note": [ {
        "text": "NRAS"
      } ]
    },
    "request": {
      "method": "PUT",
      "url": "Observation/2725edd36b8625a063c41b4cc0e47c3932a3a11925037fcf953424cf7636de71"
    }
  }, {
    "fullUrl": "DiagnosticReport/1f13d00c583d76bc42540fa187e084aed61c9c5e3e432c9962cf2de1790aa1f2",
    "resource": {
      "resourceType": "DiagnosticReport",
      "id": "1f13d00c583d76bc42540fa187e084aed61c9c5e3e432c9962cf2de1790aa1f2",
      "identifier": [ {
        "system": "https://bzkf.github.io/obds-to-fhir/identifiers/histologiebefund-diagnostic-report-id",
        "value": "PAT_70103"
      } ],
      "status": "final",
      "code": {
        "coding": [ {
          "system": "http://loinc.org",
          "code": "22034-3"
        } ]
      },
      "subject": {
        "reference": "Patient/17fd07c897c1b71242be625380c0f570dd1262c3e8e6716c09819705494d65b5"
      },
      "conclusion": "Lorem ipsum dolor sit amet, consectetuer adipiscing elit, sed diam nonummy nibh euismod tincidunt ut laoreet dolore magna aliquam erat volutpat. Ut wisi enim ad minim veniam, quis nostrud exercitation ulliam corper suscipit lobortis nisl ut aliquip ex ea commodo consequat. Duis autem veleum iriure dolor in hendrerit in vulputate velit esse molestie consequat, vel willum lunombro dolore eu feugiat nulla facilisis at vero eros et accumsan et iusto odio dignissim qui blandit praesent luptatum zzril delenit augue duis dolore te feugait nulla facilisi."
    },
    "request": {
      "method": "PUT",
      "url": "DiagnosticReport/1f13d00c583d76bc42540fa187e084aed61c9c5e3e432c9962cf2de1790aa1f2"
    }
  }, {
    "fullUrl": "Specimen/2da3bf8cee3f3f6e68af5f378ca717cee8a896209d3251d791b496651ec422b1",
    "resource": {
      "resourceType": "Specimen",
      "id": "2da3bf8cee3f3f6e68af5f378ca717cee8a896209d3251d791b496651ec422b1",
      "meta": {
        "profile": [ "https://www.medizininformatik-initiative.de/fhir/ext/modul-onko/StructureDefinition/mii-pr-onko-specimen" ]
      },
      "identifier": [ {
        "system": "https://bzkf.github.io/obds-to-fhir/identifiers/specimen-id",
        "value": "270"
      } ],
      "accessionIdentifier": {
        "value": "H000123-22"
      },
      "subject": {
        "reference": "Patient/17fd07c897c1b71242be625380c0f570dd1262c3e8e6716c09819705494d65b5"
      },
      "collection": {
        "collectedDateTime": "2020-01-01"
      }
    },
    "request": {
      "method": "PUT",
      "url": "Specimen/2da3bf8cee3f3f6e68af5f378ca717cee8a896209d3251d791b496651ec422b1"
    }
  }, {
    "fullUrl": "Observation/00aec8ed6caf4a60ceb7d87ec1704d2df125f558a8811c21b0079905ee0d828a",
    "resource": {
      "resourceType": "Observation",
      "id": "00aec8ed6caf4a60ceb7d87ec1704d2df125f558a8811c21b0079905ee0d828a",
      "meta": {
        "profile": [ "https://www.medizininformatik-initiative.de/fhir/ext/modul-onko/StructureDefinition/mii-pr-onko-histologie-icdo3" ]
      },
      "identifier": [ {
        "system": "https://bzkf.github.io/obds-to-fhir/identifiers/observation-histologie-id",
        "value": "270_ICDO3_8720/3"
      } ],
      "status": "final",
      "code": {
        "coding": [ {
          "system": "http://loinc.org",
          "code": "59847-4"
        } ]
      },
      "subject": {
        "reference": "Patient/17fd07c897c1b71242be625380c0f570dd1262c3e8e6716c09819705494d65b5"
      },
      "focus": [ {
        "reference": "Condition/03319133475b581ed6ab8a9fdf09502f00bf746bce7518624575ed0d9d5d1102"
      } ],
      "effectiveDateTime": "2020-01-01",
      "valueCodeableConcept": {
        "coding": [ {
          "system": "http://terminology.hl7.org/CodeSystem/icd-o-3",
          "version": "33",
          "code": "8720/3"
        } ],
        "text": "Malignes Melanom o.n.A."
      },
      "specimen": {
        "reference": "Specimen/2da3bf8cee3f3f6e68af5f378ca717cee8a896209d3251d791b496651ec422b1"
      }
    },
    "request": {
      "method": "PUT",
      "url": "Observation/00aec8ed6caf4a60ceb7d87ec1704d2df125f558a8811c21b0079905ee0d828a"
    }
  }, {
    "fullUrl": "Observation/772459bb426b47a39357c8cfdffa8f14dbd57a3cf48e059cd8f49d45bb1ec857",
    "resource": {
      "resourceType": "Observation",
      "id": "772459bb426b47a39357c8cfdffa8f14dbd57a3cf48e059cd8f49d45bb1ec857",
      "meta": {
        "profile": [ "https://www.medizininformatik-initiative.de/fhir/ext/modul-onko/StructureDefinition/mii-pr-onko-grading" ]
      },
      "identifier": [ {
        "system": "https://bzkf.github.io/obds-to-fhir/identifiers/grading-observation-id",
        "value": "270_Grading"
      } ],
      "status": "final",
      "category": [ {
        "coding": [ {
          "system": "http://terminology.hl7.org/CodeSystem/observation-category",
          "code": "laboratory"
        } ]
      } ],
      "code": {
        "coding": [ {
          "system": "http://loinc.org",
          "code": "33732-9"
        }, {
          "system": "http://snomed.info/sct",
          "code": "371469007"
        } ]
      },
      "subject": {
        "reference": "Patient/17fd07c897c1b71242be625380c0f570dd1262c3e8e6716c09819705494d65b5"
      },
      "focus": [ {
        "reference": "Condition/03319133475b581ed6ab8a9fdf09502f00bf746bce7518624575ed0d9d5d1102"
      } ],
      "effectiveDateTime": "2020-01-01",
      "valueCodeableConcept": {
        "coding": [ {
          "system": "https://www.medizininformatik-initiative.de/fhir/ext/modul-onko/CodeSystem/mii-cs-onko-grading",
          "code": "U"
        } ]
      },
      "specimen": {
        "reference": "Specimen/2da3bf8cee3f3f6e68af5f378ca717cee8a896209d3251d791b496651ec422b1"
      }
    },
    "request": {
      "method": "PUT",
      "url": "Observation/772459bb426b47a39357c8cfdffa8f14dbd57a3cf48e059cd8f49d45bb1ec857"
    }
  }, {
    "fullUrl": "DiagnosticReport/0ab8291007f01a691b1499f4ee01ececd2e1cee22737198aeabc408e4afb45bb",
    "resource": {
      "resourceType": "DiagnosticReport",
      "id": "0ab8291007f01a691b1499f4ee01ececd2e1cee22737198aeabc408e4afb45bb",
      "identifier": [ {
        "system": "https://bzkf.github.io/obds-to-fhir/identifiers/histologiebefund-diagnostic-report-id",
        "value": "PAT_70104"
      } ],
      "status": "final",
      "code": {
        "coding": [ {
          "system": "http://loinc.org",
          "code": "22034-3"
        } ]
      },
      "subject": {
        "reference": "Patient/17fd07c897c1b71242be625380c0f570dd1262c3e8e6716c09819705494d65b5"
      },
      "specimen": [ {
        "reference": "Specimen/2da3bf8cee3f3f6e68af5f378ca717cee8a896209d3251d791b496651ec422b1"
      } ],
      "conclusion": "Lorem ipsum dolor sit amet, consectetaur adipisicing elit, sed do eiusmod tempor incididunt ut labore et dolore magna aliqua. Ut enim ad minim veniam, quis nostrud exercitation ullamco laboris nisi ut aliquip ex ea commodo consequat. Duis aute irure dolor in reprehenderit in voluptate velit esse cillum dolore eu fugiat nulla pariatur. Excepteur sint occaecat cupidatat non proident, sunt in culpa qui officia deserunt mollit anim id est laborum Et harumd und lookum like Greek to me, dereud facilis est er expedit distinct."
    },
    "request": {
      "method": "PUT",
      "url": "DiagnosticReport/0ab8291007f01a691b1499f4ee01ececd2e1cee22737198aeabc408e4afb45bb"
    }
  } ]
}