{
  "resourceType": "Bundle",
  "id": "9142ee3ff7990f826ada966f03da267e0fe662f73858158f5e868b772cd68730",
  "type": "transaction",
  "entry": [ {
    "fullUrl": "Patient/9142ee3ff7990f826ada966f03da267e0fe662f73858158f5e868b772cd68730",
    "resource": {
      "resourceType": "Patient",
      "id": "9142ee3ff7990f826ada966f03da267e0fe662f73858158f5e868b772cd68730",
      "meta": {
        "profile": [ "https://www.medizininformatik-initiative.de/fhir/core/modul-person/StructureDefinition/PatientPseudonymisiert" ]
      },
      "identifier": [ {
        "type": {
          "coding": [ {
            "system": "http://terminology.hl7.org/CodeSystem/v2-0203",
            "code": "MR",
            "display": "Medical record number"
          }, {
            "system": "http://terminology.hl7.org/CodeSystem/v3-ObservationValue",
            "code": "PSEUDED",
            "display": "pseudonymized"
          } ]
        },
        "system": "https://bzkf.github.io/obds-to-fhir/identifiers/patient-id",
        "value": "60"
      } ],
      "gender": "female",
      "birthDate": "1950-10-15",
      "deceasedDateTime": "2021-11-27",
      "address": [ {
        "type": "both",
        "postalCode": "74072",
        "country": "DE"
      } ]
    },
    "request": {
      "method": "PUT",
      "url": "Patient/9142ee3ff7990f826ada966f03da267e0fe662f73858158f5e868b772cd68730"
    }
  }, {
    "fullUrl": "Observation/f5cb9006f7ca2b67e940a5a95725a2fc6b1e1687be203f7d317802e45e377857",
    "resource": {
      "resourceType": "Observation",
      "id": "f5cb9006f7ca2b67e940a5a95725a2fc6b1e1687be203f7d317802e45e377857",
      "meta": {
        "profile": [ "https://www.medizininformatik-initiative.de/fhir/ext/modul-onko/StructureDefinition/mii-pr-onko-tod" ]
      },
      "identifier": [ {
        "system": "https://bzkf.github.io/obds-to-fhir/identifiers/tod-observation-id",
        "value": "55_C50.4"
      } ],
      "status": "final",
      "code": {
        "coding": [ {
          "system": "http://snomed.info/sct",
          "code": "184305005"
        } ]
      },
      "subject": {
        "reference": "Patient/9142ee3ff7990f826ada966f03da267e0fe662f73858158f5e868b772cd68730"
      },
      "focus": [ {
        "reference": "Condition/257c056341e9015dfdd7d15cab0a7414b348796b2b01813101078b451af692c6"
      } ],
      "effectiveDateTime": "2021-11-27",
      "valueCodeableConcept": {
        "coding": [ {
          "system": "http://fhir.de/CodeSystem/bfarm/icd-10-gm",
          "version": "2022",
          "code": "C50.4"
        } ]
      },
      "interpretation": [ {
        "coding": [ {
          "system": "https://www.medizininformatik-initiative.de/fhir/ext/modul-onko/CodeSystem/mii-cs-onko-tod",
          "code": "J"
        } ]
      } ]
    },
    "request": {
      "method": "PUT",
      "url": "Observation/f5cb9006f7ca2b67e940a5a95725a2fc6b1e1687be203f7d317802e45e377857"
    }
  }, {
    "fullUrl": "Observation/cd118ca3e3a3ee2412cfba5bb69e74fb72396a9b815308c08b41f8c747b200e2",
    "resource": {
      "resourceType": "Observation",
      "id": "cd118ca3e3a3ee2412cfba5bb69e74fb72396a9b815308c08b41f8c747b200e2",
      "meta": {
        "profile": [ "https://www.medizininformatik-initiative.de/fhir/ext/modul-onko/StructureDefinition/mii-pr-onko-verlauf" ]
      },
      "identifier": [ {
        "system": "https://bzkf.github.io/obds-to-fhir/identifiers/observation-verlauf-id",
        "value": "153"
      } ],
      "status": "final",
      "code": {
        "coding": [ {
          "system": "http://snomed.info/sct",
          "code": "396432002",
          "display": "Status of regression of tumor (observable entity)"
        } ]
      },
      "subject": {
        "reference": "Patient/9142ee3ff7990f826ada966f03da267e0fe662f73858158f5e868b772cd68730"
      },
      "focus": [ {
        "reference": "Condition/257c056341e9015dfdd7d15cab0a7414b348796b2b01813101078b451af692c6"
      } ],
      "effectiveDateTime": "2021-09-14",
      "valueCodeableConcept": {
        "coding": [ {
          "system": "https://www.medizininformatik-initiative.de/fhir/ext/modul-onko/CodeSystem/mii-cs-onko-verlauf-gesamtbeurteilung",
          "code": "P",
          "display": "Progression"
        } ]
      },
      "component": [ {
        "code": {
          "coding": [ {
            "system": "http://snomed.info/sct",
            "code": "277062004",
            "display": "Status des Residualtumors"
          } ]
        },
        "valueCodeableConcept": {
          "coding": [ {
            "system": "https://www.medizininformatik-initiative.de/fhir/ext/modul-onko/CodeSystem/mii-cs-onko-verlauf-primaertumor",
            "code": "R",
            "display": "Lokalrezidiv"
          } ]
        }
      }, {
        "code": {
          "coding": [ {
            "system": "http://snomed.info/sct",
            "code": "399656008",
            "display": "Status of tumor metastasis to regional lymph nodes (observable entity)"
          } ]
        },
        "valueCodeableConcept": {
          "coding": [ {
            "system": "https://www.medizininformatik-initiative.de/fhir/ext/modul-onko/CodeSystem/mii-cs-onko-verlauf-lymphknoten",
            "code": "R",
            "display": "neu aufgetretenes Lymphknotenrezidiv"
          } ]
        }
      }, {
        "code": {
          "coding": [ {
            "system": "http://snomed.info/sct",
            "code": "399608002",
            "display": "Status of distant metastasis (observable entity)"
          } ]
        },
        "valueCodeableConcept": {
          "coding": [ {
            "system": "https://www.medizininformatik-initiative.de/fhir/ext/modul-onko/CodeSystem/mii-cs-onko-verlauf-fernmetastasen",
            "code": "R",
            "display": "neu aufgetretene Fernmetastase(n) bzw. Metastasenrezidiv"
          } ]
        }
      } ]
    },
    "request": {
      "method": "PUT",
      "url": "Observation/cd118ca3e3a3ee2412cfba5bb69e74fb72396a9b815308c08b41f8c747b200e2"
    }
  }, {
    "fullUrl": "Observation/7d9afbd70680a9fd458f4d21cb4be15181aacc3303ffdc1c34e6dd499ad94c30",
    "resource": {
      "resourceType": "Observation",
      "id": "7d9afbd70680a9fd458f4d21cb4be15181aacc3303ffdc1c34e6dd499ad94c30",
      "meta": {
        "profile": [ "https://www.medizininformatik-initiative.de/fhir/ext/modul-onko/StructureDefinition/mii-pr-onko-fernmetastasen" ]
      },
      "identifier": [ {
        "system": "https://bzkf.github.io/obds-to-fhir/identifiers/fernmetastasen-id",
        "value": "VER_60102-Verlauf-0"
      } ],
      "status": "final",
      "code": {
        "coding": [ {
          "system": "http://snomed.info/sct",
          "code": "385421009"
        } ]
      },
      "subject": {
        "reference": "Patient/9142ee3ff7990f826ada966f03da267e0fe662f73858158f5e868b772cd68730"
      },
      "focus": [ {
        "reference": "Condition/257c056341e9015dfdd7d15cab0a7414b348796b2b01813101078b451af692c6"
      } ],
      "effectiveDateTime": "2021-09-14",
      "valueCodeableConcept": {
        "coding": [ {
          "system": "https://www.medizininformatik-initiative.de/fhir/ext/modul-onko/CodeSystem/mii-cs-onko-fernmetastasen",
          "code": "HEP"
        } ]
      }
    },
    "request": {
      "method": "PUT",
      "url": "Observation/7d9afbd70680a9fd458f4d21cb4be15181aacc3303ffdc1c34e6dd499ad94c30"
    }
  }, {
    "fullUrl": "Observation/ac06b804e9c8f79d11988bd00ef0c8d229a04b880a8b3a3237a7ef9e3ed60528",
    "resource": {
      "resourceType": "Observation",
      "id": "ac06b804e9c8f79d11988bd00ef0c8d229a04b880a8b3a3237a7ef9e3ed60528",
      "meta": {
        "profile": [ "https://www.medizininformatik-initiative.de/fhir/ext/modul-onko/StructureDefinition/mii-pr-onko-fernmetastasen" ]
      },
      "identifier": [ {
        "system": "https://bzkf.github.io/obds-to-fhir/identifiers/fernmetastasen-id",
        "value": "VER_60102-Verlauf-1"
      } ],
      "status": "final",
      "code": {
        "coding": [ {
          "system": "http://snomed.info/sct",
          "code": "385421009"
        } ]
      },
      "subject": {
        "reference": "Patient/9142ee3ff7990f826ada966f03da267e0fe662f73858158f5e868b772cd68730"
      },
      "focus": [ {
        "reference": "Condition/257c056341e9015dfdd7d15cab0a7414b348796b2b01813101078b451af692c6"
      } ],
      "effectiveDateTime": "2021-09-14",
      "valueCodeableConcept": {
        "coding": [ {
          "system": "https://www.medizininformatik-initiative.de/fhir/ext/modul-onko/CodeSystem/mii-cs-onko-fernmetastasen",
          "code": "PUL"
        } ]
      }
    },
    "request": {
      "method": "PUT",
      "url": "Observation/ac06b804e9c8f79d11988bd00ef0c8d229a04b880a8b3a3237a7ef9e3ed60528"
    }
  }, {
    "fullUrl": "Specimen/1d79688586bf4aab850a2f43b7b573f1f2c381a288a0996809df83bc94b6b6b3",
    "resource": {
      "resourceType": "Specimen",
      "id": "1d79688586bf4aab850a2f43b7b573f1f2c381a288a0996809df83bc94b6b6b3",
      "meta": {
        "profile": [ "https://www.medizininformatik-initiative.de/fhir/ext/modul-onko/StructureDefinition/mii-pr-onko-specimen" ]
      },
      "identifier": [ {
        "system": "https://bzkf.github.io/obds-to-fhir/identifiers/specimen-id",
        "value": "260"
      } ],
      "accessionIdentifier": {
        "value": "H23201/2021"
      },
      "subject": {
        "reference": "Patient/9142ee3ff7990f826ada966f03da267e0fe662f73858158f5e868b772cd68730"
      },
      "collection": {
        "collectedDateTime": "2021-09-14"
      }
    },
    "request": {
      "method": "PUT",
      "url": "Specimen/1d79688586bf4aab850a2f43b7b573f1f2c381a288a0996809df83bc94b6b6b3"
    }
  }, {
    "fullUrl": "Observation/1997f933b38e767955f017ae76cb2a840a8d6646d9fedcb02cbd4b54d7671d3b",
    "resource": {
      "resourceType": "Observation",
      "id": "1997f933b38e767955f017ae76cb2a840a8d6646d9fedcb02cbd4b54d7671d3b",
      "meta": {
        "profile": [ "https://www.medizininformatik-initiative.de/fhir/ext/modul-onko/StructureDefinition/mii-pr-onko-histologie-icdo3" ]
      },
      "identifier": [ {
        "system": "https://bzkf.github.io/obds-to-fhir/identifiers/observation-histologie-id",
        "value": "260_ICDO3_8500/3"
      } ],
      "status": "final",
      "code": {
        "coding": [ {
          "system": "http://loinc.org",
          "code": "59847-4"
        } ]
      },
      "subject": {
        "reference": "Patient/9142ee3ff7990f826ada966f03da267e0fe662f73858158f5e868b772cd68730"
      },
      "focus": [ {
        "reference": "Condition/257c056341e9015dfdd7d15cab0a7414b348796b2b01813101078b451af692c6"
      } ],
      "effectiveDateTime": "2021-09-14",
      "valueCodeableConcept": {
        "coding": [ {
          "system": "http://terminology.hl7.org/CodeSystem/icd-o-3",
          "version": "31",
          "code": "8500/3"
        } ],
        "text": "Invasives duktales Karzinom o.n.A."
      },
      "specimen": {
        "reference": "Specimen/1d79688586bf4aab850a2f43b7b573f1f2c381a288a0996809df83bc94b6b6b3"
      }
    },
    "request": {
      "method": "PUT",
      "url": "Observation/1997f933b38e767955f017ae76cb2a840a8d6646d9fedcb02cbd4b54d7671d3b"
    }
  }, {
    "fullUrl": "Observation/49b78ec10c886379605a6195257f34011d513226ae735f45f6d34071f376c3b3",
    "resource": {
      "resourceType": "Observation",
      "id": "49b78ec10c886379605a6195257f34011d513226ae735f45f6d34071f376c3b3",
      "meta": {
        "profile": [ "https://www.medizininformatik-initiative.de/fhir/ext/modul-onko/StructureDefinition/mii-pr-onko-grading" ]
      },
      "identifier": [ {
        "system": "https://bzkf.github.io/obds-to-fhir/identifiers/grading-observation-id",
        "value": "260_Grading"
      } ],
      "status": "final",
      "category": [ {
        "coding": [ {
          "system": "http://terminology.hl7.org/CodeSystem/observation-category",
          "code": "laboratory"
        } ]
      } ],
      "code": {
        "coding": [ {
          "system": "http://loinc.org",
          "code": "33732-9"
        }, {
          "system": "http://snomed.info/sct",
          "code": "371469007"
        } ]
      },
      "subject": {
        "reference": "Patient/9142ee3ff7990f826ada966f03da267e0fe662f73858158f5e868b772cd68730"
      },
      "focus": [ {
        "reference": "Condition/257c056341e9015dfdd7d15cab0a7414b348796b2b01813101078b451af692c6"
      } ],
      "effectiveDateTime": "2021-09-14",
      "valueCodeableConcept": {
        "coding": [ {
          "system": "https://www.medizininformatik-initiative.de/fhir/ext/modul-onko/CodeSystem/mii-cs-onko-grading",
          "code": "3"
        } ]
      },
      "specimen": {
        "reference": "Specimen/1d79688586bf4aab850a2f43b7b573f1f2c381a288a0996809df83bc94b6b6b3"
      }
    },
    "request": {
      "method": "PUT",
      "url": "Observation/49b78ec10c886379605a6195257f34011d513226ae735f45f6d34071f376c3b3"
    }
  }, {
    "fullUrl": "Observation/512433602f24c742727cd1fa525e64718c2ddcbf100007493e5bfd556c111be8",
    "resource": {
      "resourceType": "Observation",
      "id": "512433602f24c742727cd1fa525e64718c2ddcbf100007493e5bfd556c111be8",
      "meta": {
        "profile": [ "https://www.medizininformatik-initiative.de/fhir/ext/modul-onko/StructureDefinition/mii-pr-onko-tnm-t-kategorie" ]
      },
      "identifier": [ {
        "system": "247_T",
        "value": "https://bzkf.github.io/obds-to-fhir/identifiers/tnm-t-kategorie-observation-id"
      } ],
      "status": "final",
      "code": {
        "extension": [ {
          "url": "https://www.medizininformatik-initiative.de/fhir/ext/modul-onko/StructureDefinition/mii-ex-onko-tnm-cp-praefix",
          "valueCodeableConcept": {
            "coding": [ {
              "system": "https://www.uicc.org/resources/tnm",
              "code": "c"
            } ]
          }
        } ],
        "coding": [ {
          "system": "http://snomed.info/sct",
          "code": "399504009",
          "display": "cT category (observable entity)"
        } ]
      },
      "subject": {
        "reference": "Patient/9142ee3ff7990f826ada966f03da267e0fe662f73858158f5e868b772cd68730"
      },
      "focus": [ {
        "reference": "Condition/257c056341e9015dfdd7d15cab0a7414b348796b2b01813101078b451af692c6"
      } ],
      "effectiveDateTime": "2021-09-14",
      "valueCodeableConcept": {
        "coding": [ {
          "system": "https://www.uicc.org/resources/tnm",
          "code": "1c"
        } ]
      },
      "method": {
        "coding": [ {
          "system": "https://www.medizininformatik-initiative.de/fhir/ext/modul-onko/CodeSystem/mii-cs-onko-tnm-version",
          "code": "8"
        } ]
      }
    },
    "request": {
      "method": "PUT",
      "url": "Observation/512433602f24c742727cd1fa525e64718c2ddcbf100007493e5bfd556c111be8"
    }
  }, {
    "fullUrl": "Observation/bbc63989220fe7fe41a5393e9edc956a4eb75aee8563b3fe53e6236982f2d906",
    "resource": {
      "resourceType": "Observation",
      "id": "bbc63989220fe7fe41a5393e9edc956a4eb75aee8563b3fe53e6236982f2d906",
      "meta": {
        "profile": [ "https://www.medizininformatik-initiative.de/fhir/ext/modul-onko/StructureDefinition/mii-pr-onko-tnm-n-kategorie" ]
      },
      "identifier": [ {
        "system": "247_N",
        "value": "https://bzkf.github.io/obds-to-fhir/identifiers/tnm-n-kategorie-observation-id"
      } ],
      "status": "final",
      "code": {
        "extension": [ {
          "url": "https://www.medizininformatik-initiative.de/fhir/ext/modul-onko/StructureDefinition/mii-ex-onko-tnm-cp-praefix",
          "valueCodeableConcept": {
            "coding": [ {
              "system": "https://www.uicc.org/resources/tnm",
              "code": "c"
            } ]
          }
        } ],
        "coding": [ {
          "system": "http://snomed.info/sct",
          "code": "399534004",
          "display": "cN category (observable entity)"
        } ]
      },
      "subject": {
        "reference": "Patient/9142ee3ff7990f826ada966f03da267e0fe662f73858158f5e868b772cd68730"
      },
      "focus": [ {
        "reference": "Condition/257c056341e9015dfdd7d15cab0a7414b348796b2b01813101078b451af692c6"
      } ],
      "effectiveDateTime": "2021-09-14",
      "valueCodeableConcept": {
        "coding": [ {
          "system": "https://www.uicc.org/resources/tnm",
          "code": "1"
        } ]
      },
      "method": {
        "coding": [ {
          "system": "https://www.medizininformatik-initiative.de/fhir/ext/modul-onko/CodeSystem/mii-cs-onko-tnm-version",
          "code": "8"
        } ]
      }
    },
    "request": {
      "method": "PUT",
      "url": "Observation/bbc63989220fe7fe41a5393e9edc956a4eb75aee8563b3fe53e6236982f2d906"
    }
  }, {
    "fullUrl": "Observation/bd538531aedf99913aa74ae115fe4266c7c78ee298cfedd8246fb808815be89e",
    "resource": {
      "resourceType": "Observation",
      "id": "bd538531aedf99913aa74ae115fe4266c7c78ee298cfedd8246fb808815be89e",
      "meta": {
        "profile": [ "https://www.medizininformatik-initiative.de/fhir/ext/modul-onko/StructureDefinition/mii-pr-onko-tnm-m-kategorie" ]
      },
      "identifier": [ {
        "system": "247_M",
        "value": "https://bzkf.github.io/obds-to-fhir/identifiers/tnm-m-kategorie-observation-id"
      } ],
      "status": "final",
      "code": {
        "extension": [ {
          "url": "https://www.medizininformatik-initiative.de/fhir/ext/modul-onko/StructureDefinition/mii-ex-onko-tnm-cp-praefix",
          "valueCodeableConcept": {
            "coding": [ {
              "system": "https://www.uicc.org/resources/tnm",
              "code": "c"
            } ]
          }
        } ],
        "coding": [ {
          "system": "http://snomed.info/sct",
          "code": "399387003",
          "display": "cM category (observable entity)"
        } ]
      },
      "subject": {
        "reference": "Patient/9142ee3ff7990f826ada966f03da267e0fe662f73858158f5e868b772cd68730"
      },
      "focus": [ {
        "reference": "Condition/257c056341e9015dfdd7d15cab0a7414b348796b2b01813101078b451af692c6"
      } ],
      "effectiveDateTime": "2021-09-14",
      "valueCodeableConcept": {
        "coding": [ {
          "system": "https://www.uicc.org/resources/tnm",
          "code": "1"
        } ]
      },
      "method": {
        "coding": [ {
          "system": "https://www.medizininformatik-initiative.de/fhir/ext/modul-onko/CodeSystem/mii-cs-onko-tnm-version",
          "code": "8"
        } ]
      }
    },
    "request": {
      "method": "PUT",
      "url": "Observation/bd538531aedf99913aa74ae115fe4266c7c78ee298cfedd8246fb808815be89e"
    }
  }, {
    "fullUrl": "Observation/e2302bff098b02ddff6ef363745a8665cf439d3ae02071815da3255aacf80df8",
    "resource": {
      "resourceType": "Observation",
      "id": "e2302bff098b02ddff6ef363745a8665cf439d3ae02071815da3255aacf80df8",
      "meta": {
        "profile": [ "https://www.medizininformatik-initiative.de/fhir/ext/modul-onko/StructureDefinition/mii-pr-onko-tnm-l-kategorie" ]
      },
      "identifier": [ {
        "system": "247_L",
        "value": "https://bzkf.github.io/obds-to-fhir/identifiers/tnm-l-kategorie-observation-id"
      } ],
      "status": "final",
      "code": {
        "coding": [ {
          "system": "http://snomed.info/sct",
          "code": "395715009"
        } ]
      },
      "subject": {
        "reference": "Patient/9142ee3ff7990f826ada966f03da267e0fe662f73858158f5e868b772cd68730"
      },
      "focus": [ {
        "reference": "Condition/257c056341e9015dfdd7d15cab0a7414b348796b2b01813101078b451af692c6"
      } ],
      "effectiveDateTime": "2021-09-14",
      "valueCodeableConcept": {
        "coding": [ {
          "system": "https://www.uicc.org/resources/tnm",
          "code": "L1"
        } ]
      },
      "method": {
        "coding": [ {
          "system": "https://www.medizininformatik-initiative.de/fhir/ext/modul-onko/CodeSystem/mii-cs-onko-tnm-version",
          "code": "8"
        } ]
      }
    },
    "request": {
      "method": "PUT",
      "url": "Observation/e2302bff098b02ddff6ef363745a8665cf439d3ae02071815da3255aacf80df8"
    }
  }, {
    "fullUrl": "Observation/519dd786617a5bb9a70fed9109005f65dab6b979a43ba80194f7cbeacc91f2c2",
    "resource": {
      "resourceType": "Observation",
      "id": "519dd786617a5bb9a70fed9109005f65dab6b979a43ba80194f7cbeacc91f2c2",
      "meta": {
        "profile": [ "\thttps://www.medizininformatik-initiative.de/fhir/ext/modul-onko/StructureDefinition/mii-pr-onko-tnm-pn-kategorie" ]
      },
      "identifier": [ {
        "system": "247_Pn",
        "value": "https://bzkf.github.io/obds-to-fhir/identifiers/tnm-pn-kategorie-observation-id"
      } ],
      "status": "final",
      "code": {
        "coding": [ {
          "system": "http://snomed.info/sct",
          "code": "371513001"
        } ]
      },
      "subject": {
        "reference": "Patient/9142ee3ff7990f826ada966f03da267e0fe662f73858158f5e868b772cd68730"
      },
      "focus": [ {
        "reference": "Condition/257c056341e9015dfdd7d15cab0a7414b348796b2b01813101078b451af692c6"
      } ],
      "effectiveDateTime": "2021-09-14",
      "valueCodeableConcept": {
        "coding": [ {
          "system": "https://www.uicc.org/resources/tnm",
          "code": "Pn1"
        } ]
      },
      "method": {
        "coding": [ {
          "system": "https://www.medizininformatik-initiative.de/fhir/ext/modul-onko/CodeSystem/mii-cs-onko-tnm-version",
          "code": "8"
        } ]
      }
    },
    "request": {
      "method": "PUT",
      "url": "Observation/519dd786617a5bb9a70fed9109005f65dab6b979a43ba80194f7cbeacc91f2c2"
    }
  }, {
    "fullUrl": "Observation/17dac0be5717cc1b1b85d5609f39085f745fba97c0fee1428aaf1a76b92656ec",
    "resource": {
      "resourceType": "Observation",
      "id": "17dac0be5717cc1b1b85d5609f39085f745fba97c0fee1428aaf1a76b92656ec",
      "meta": {
        "profile": [ "https://www.medizininformatik-initiative.de/fhir/ext/modul-onko/StructureDefinition/mii-pr-onko-tnm-r-symbol" ]
      },
      "identifier": [ {
        "system": "247_r",
        "value": "https://bzkf.github.io/obds-to-fhir/identifiers/tnm-r-symbol-observation-id"
      } ],
      "status": "final",
      "code": {
        "coding": [ {
          "system": "http://loinc.org",
          "code": "101659-1"
        } ]
      },
      "subject": {
        "reference": "Patient/9142ee3ff7990f826ada966f03da267e0fe662f73858158f5e868b772cd68730"
      },
      "focus": [ {
        "reference": "Condition/257c056341e9015dfdd7d15cab0a7414b348796b2b01813101078b451af692c6"
      } ],
      "effectiveDateTime": "2021-09-14",
      "valueCodeableConcept": {
        "coding": [ {
          "system": "http://snomed.info/sct",
          "code": "421188008"
        } ]
      },
      "method": {
        "coding": [ {
          "system": "https://www.medizininformatik-initiative.de/fhir/ext/modul-onko/CodeSystem/mii-cs-onko-tnm-version",
          "code": "8"
        } ]
      }
    },
    "request": {
      "method": "PUT",
      "url": "Observation/17dac0be5717cc1b1b85d5609f39085f745fba97c0fee1428aaf1a76b92656ec"
    }
  }, {
    "fullUrl": "Observation/3df5fd289539b9cd5b732bea7b0fd1b38c0a5fd02fb817db4d3928cf8a008d1e",
    "resource": {
      "resourceType": "Observation",
      "id": "3df5fd289539b9cd5b732bea7b0fd1b38c0a5fd02fb817db4d3928cf8a008d1e",
      "meta": {
        "profile": [ "https://www.medizininformatik-initiative.de/fhir/ext/modul-onko/StructureDefinition/mii-pr-onko-tnm-v-kategorie" ]
      },
      "identifier": [ {
        "system": "247_V",
        "value": "https://bzkf.github.io/obds-to-fhir/identifiers/tnm-v-kategorie-observation-id"
      } ],
      "status": "final",
      "code": {
        "coding": [ {
          "system": "http://snomed.info/sct",
          "code": "371493002"
        } ]
      },
      "subject": {
        "reference": "Patient/9142ee3ff7990f826ada966f03da267e0fe662f73858158f5e868b772cd68730"
      },
      "focus": [ {
        "reference": "Condition/257c056341e9015dfdd7d15cab0a7414b348796b2b01813101078b451af692c6"
      } ],
      "effectiveDateTime": "2021-09-14",
      "valueCodeableConcept": {
        "coding": [ {
          "system": "https://www.uicc.org/resources/tnm",
          "code": "V1"
        } ]
      },
      "method": {
        "coding": [ {
          "system": "https://www.medizininformatik-initiative.de/fhir/ext/modul-onko/CodeSystem/mii-cs-onko-tnm-version",
          "code": "8"
        } ]
      }
    },
    "request": {
      "method": "PUT",
      "url": "Observation/3df5fd289539b9cd5b732bea7b0fd1b38c0a5fd02fb817db4d3928cf8a008d1e"
    }
  }, {
    "fullUrl": "Observation/a1f3e52a64932685b8f482c9464dbef6183c04b2f7ec232e8e3e425b73e641a7",
    "resource": {
      "resourceType": "Observation",
      "id": "a1f3e52a64932685b8f482c9464dbef6183c04b2f7ec232e8e3e425b73e641a7",
      "meta": {
        "profile": [ "https://www.medizininformatik-initiative.de/fhir/ext/modul-onko/StructureDefinition/mii-pr-onko-tnm-klassifikation" ]
      },
      "identifier": [ {
        "system": "https://bzkf.github.io/obds-to-fhir/identifiers/tnm-grouping-observation-id",
        "value": "247"
      } ],
      "status": "final",
      "code": {
        "coding": [ {
          "system": "http://snomed.info/sct",
          "code": "399588009",
          "display": "TNM stage grouping"
        } ]
      },
      "subject": {
        "reference": "Patient/9142ee3ff7990f826ada966f03da267e0fe662f73858158f5e868b772cd68730"
      },
      "focus": [ {
        "reference": "Condition/257c056341e9015dfdd7d15cab0a7414b348796b2b01813101078b451af692c6"
      } ],
      "effectiveDateTime": "2021-09-14",
      "valueCodeableConcept": {
        "coding": [ {
          "system": "https://www.uicc.org/resources/tnm",
          "code": "IV",
          "display": "Stadium IV"
        } ]
      },
      "method": {
        "coding": [ {
          "system": "https://www.medizininformatik-initiative.de/fhir/ext/modul-onko/CodeSystem/mii-cs-onko-tnm-version",
          "code": "8"
        } ]
      },
      "hasMember": [ {
        "reference": "Observation/512433602f24c742727cd1fa525e64718c2ddcbf100007493e5bfd556c111be8"
      }, {
        "reference": "Observation/bbc63989220fe7fe41a5393e9edc956a4eb75aee8563b3fe53e6236982f2d906"
      }, {
        "reference": "Observation/bd538531aedf99913aa74ae115fe4266c7c78ee298cfedd8246fb808815be89e"
      }, {
        "reference": "Observation/e2302bff098b02ddff6ef363745a8665cf439d3ae02071815da3255aacf80df8"
      }, {
        "reference": "Observation/519dd786617a5bb9a70fed9109005f65dab6b979a43ba80194f7cbeacc91f2c2"
      }, {
        "reference": "Observation/17dac0be5717cc1b1b85d5609f39085f745fba97c0fee1428aaf1a76b92656ec"
      }, {
        "reference": "Observation/3df5fd289539b9cd5b732bea7b0fd1b38c0a5fd02fb817db4d3928cf8a008d1e"
      } ]
    },
    "request": {
      "method": "PUT",
      "url": "Observation/a1f3e52a64932685b8f482c9464dbef6183c04b2f7ec232e8e3e425b73e641a7"
    }
  }, {
    "fullUrl": "Condition/257c056341e9015dfdd7d15cab0a7414b348796b2b01813101078b451af692c6",
    "resource": {
      "resourceType": "Condition",
      "id": "257c056341e9015dfdd7d15cab0a7414b348796b2b01813101078b451af692c6",
      "meta": {
        "profile": [ "https://www.medizininformatik-initiative.de/fhir/ext/modul-onko/StructureDefinition/mii-pr-onko-diagnose-primaertumor" ]
      },
      "extension": [ {
        "url": "https://www.medizininformatik-initiative.de/fhir/ext/modul-onko/StructureDefinition/mii-ex-onko-histology-morphology-behavior-icdo3",
        "valueCodeableConcept": {
          "coding": [ {
            "system": "http://terminology.hl7.org/CodeSystem/icd-o-3",
            "version": "31",
            "code": "8500/3"
          } ]
        }
      }, {
        "url": "http://hl7.org/fhir/StructureDefinition/condition-assertedDate",
        "valueDateTime": "2020-02-16"
      } ],
      "identifier": [ {
        "system": "https://bzkf.github.io/obds-to-fhir/identifiers/primaerdiagnose-id",
        "value": "601"
      } ],
      "verificationStatus": {
        "coding": [ {
          "system": "http://terminology.hl7.org/CodeSystem/condition-ver-status",
          "code": "confirmed"
        }, {
          "system": "https://www.medizininformatik-initiative.de/fhir/ext/modul-onko/CodeSystem/mii-cs-onko-primaertumor-diagnosesicherung",
          "code": "7"
        } ]
      },
      "code": {
        "coding": [ {
          "system": "http://fhir.de/CodeSystem/bfarm/icd-10-gm",
          "version": "2020",
          "code": "C50.4"
        } ]
      },
      "bodySite": [ {
        "coding": [ {
          "system": "http://terminology.hl7.org/CodeSystem/icd-o-3",
          "version": "33",
          "code": "C50.4"
        } ]
      }, {
        "coding": [ {
          "system": "https://www.medizininformatik-initiative.de/fhir/ext/modul-onko/CodeSystem/mii-cs-onko-seitenlokalisation",
          "code": "R"
        } ]
      } ],
      "subject": {
        "reference": "Patient/9142ee3ff7990f826ada966f03da267e0fe662f73858158f5e868b772cd68730"
      },
      "recordedDate": "2024-02-16"
    },
    "request": {
      "method": "PUT",
      "url": "Condition/257c056341e9015dfdd7d15cab0a7414b348796b2b01813101078b451af692c6"
    }
  }, {
    "fullUrl": "Observation/b6fd26e16e61fdab680a3578c55dd2b4d167956df235d345ed5070e86ebe1610",
    "resource": {
      "resourceType": "Observation",
      "id": "b6fd26e16e61fdab680a3578c55dd2b4d167956df235d345ed5070e86ebe1610",
      "meta": {
        "profile": [ "https://www.medizininformatik-initiative.de/fhir/ext/modul-onko/StructureDefinition/mii-pr-onko-allgemeiner-leistungszustand-ecog" ]
      },
      "identifier": [ {
        "system": "https://bzkf.github.io/obds-to-fhir/identifiers/allgemeiner-leistungszustand-ecog-id",
        "value": "ECOG-DIA_60103"
      } ],
      "status": "final",
      "code": {
        "coding": [ {
          "system": "http://snomed.info/sct",
          "code": "423740007"
        } ]
      },
      "subject": {
        "reference": "Patient/9142ee3ff7990f826ada966f03da267e0fe662f73858158f5e868b772cd68730"
      },
      "focus": [ {
        "reference": "Condition/257c056341e9015dfdd7d15cab0a7414b348796b2b01813101078b451af692c6"
      } ],
      "effectiveDateTime": "2020-02-16",
      "valueCodeableConcept": {
        "coding": [ {
          "system": "https://www.medizininformatik-initiative.de/fhir/ext/modul-onko/CodeSystem/mii-cs-onko-allgemeiner-leistungszustand-ecog",
          "code": "0",
          "display": "Normale, uneingeschränkte Aktivität wie vor der Erkrankung (90 - 100 % nach Karnofsky)"
        } ]
      }
    },
    "request": {
      "method": "PUT",
      "url": "Observation/b6fd26e16e61fdab680a3578c55dd2b4d167956df235d345ed5070e86ebe1610"
    }
  }, {
    "fullUrl": "Specimen/418909882b59a6bf841cc3da0ddf3f8135cebb781550c46ca152df8490087711",
    "resource": {
      "resourceType": "Specimen",
      "id": "418909882b59a6bf841cc3da0ddf3f8135cebb781550c46ca152df8490087711",
      "meta": {
        "profile": [ "https://www.medizininformatik-initiative.de/fhir/ext/modul-onko/StructureDefinition/mii-pr-onko-specimen" ]
      },
      "identifier": [ {
        "system": "https://bzkf.github.io/obds-to-fhir/identifiers/specimen-id",
        "value": "261"
      } ],
      "accessionIdentifier": {
        "value": "H1576/2020"
      },
      "subject": {
        "reference": "Patient/9142ee3ff7990f826ada966f03da267e0fe662f73858158f5e868b772cd68730"
      },
      "collection": {
        "collectedDateTime": "2020-02-16"
      }
    },
    "request": {
      "method": "PUT",
      "url": "Specimen/418909882b59a6bf841cc3da0ddf3f8135cebb781550c46ca152df8490087711"
    }
  }, {
    "fullUrl": "Observation/a47ba6d2b02bfcd43c25c45d4515752fc79f4a9cfe3cc7c83ac724dd5467b4fa",
    "resource": {
      "resourceType": "Observation",
      "id": "a47ba6d2b02bfcd43c25c45d4515752fc79f4a9cfe3cc7c83ac724dd5467b4fa",
      "meta": {
        "profile": [ "https://www.medizininformatik-initiative.de/fhir/ext/modul-onko/StructureDefinition/mii-pr-onko-histologie-icdo3" ]
      },
      "identifier": [ {
        "system": "https://bzkf.github.io/obds-to-fhir/identifiers/observation-histologie-id",
        "value": "261_ICDO3_8500/3"
      } ],
      "status": "final",
      "code": {
        "coding": [ {
          "system": "http://loinc.org",
          "code": "59847-4"
        } ]
      },
      "subject": {
        "reference": "Patient/9142ee3ff7990f826ada966f03da267e0fe662f73858158f5e868b772cd68730"
      },
      "focus": [ {
        "reference": "Condition/257c056341e9015dfdd7d15cab0a7414b348796b2b01813101078b451af692c6"
      } ],
      "effectiveDateTime": "2020-02-16",
      "valueCodeableConcept": {
        "coding": [ {
          "system": "http://terminology.hl7.org/CodeSystem/icd-o-3",
          "version": "31",
          "code": "8500/3"
        } ],
        "text": "Invasives duktales Karzinom o.n.A."
      },
      "specimen": {
        "reference": "Specimen/418909882b59a6bf841cc3da0ddf3f8135cebb781550c46ca152df8490087711"
      }
    },
    "request": {
      "method": "PUT",
      "url": "Observation/a47ba6d2b02bfcd43c25c45d4515752fc79f4a9cfe3cc7c83ac724dd5467b4fa"
    }
  }, {
    "fullUrl": "Observation/9963457c69633ac6a3441aff23d5d854a0630e7c35c3d1c533aeea2179659b41",
    "resource": {
      "resourceType": "Observation",
      "id": "9963457c69633ac6a3441aff23d5d854a0630e7c35c3d1c533aeea2179659b41",
      "meta": {
        "profile": [ "https://www.medizininformatik-initiative.de/fhir/ext/modul-onko/StructureDefinition/mii-pr-onko-grading" ]
      },
      "identifier": [ {
        "system": "https://bzkf.github.io/obds-to-fhir/identifiers/grading-observation-id",
        "value": "261_Grading"
      } ],
      "status": "final",
      "category": [ {
        "coding": [ {
          "system": "http://terminology.hl7.org/CodeSystem/observation-category",
          "code": "laboratory"
        } ]
      } ],
      "code": {
        "coding": [ {
          "system": "http://loinc.org",
          "code": "33732-9"
        }, {
          "system": "http://snomed.info/sct",
          "code": "371469007"
        } ]
      },
      "subject": {
        "reference": "Patient/9142ee3ff7990f826ada966f03da267e0fe662f73858158f5e868b772cd68730"
      },
      "focus": [ {
        "reference": "Condition/257c056341e9015dfdd7d15cab0a7414b348796b2b01813101078b451af692c6"
      } ],
      "effectiveDateTime": "2020-02-16",
      "valueCodeableConcept": {
        "coding": [ {
          "system": "https://www.medizininformatik-initiative.de/fhir/ext/modul-onko/CodeSystem/mii-cs-onko-grading",
          "code": "2"
        } ]
      },
      "specimen": {
        "reference": "Specimen/418909882b59a6bf841cc3da0ddf3f8135cebb781550c46ca152df8490087711"
      }
    },
    "request": {
      "method": "PUT",
      "url": "Observation/9963457c69633ac6a3441aff23d5d854a0630e7c35c3d1c533aeea2179659b41"
    }
  }, {
    "fullUrl": "Observation/05a0550fe369d93b1e6563a1618e337548b93070e1e743749694bc1f381d34c9",
    "resource": {
      "resourceType": "Observation",
      "id": "05a0550fe369d93b1e6563a1618e337548b93070e1e743749694bc1f381d34c9",
      "meta": {
        "profile": [ "https://www.medizininformatik-initiative.de/fhir/ext/modul-onko/StructureDefinition/mii-pr-onko-tnm-t-kategorie" ]
      },
      "identifier": [ {
        "system": "248_T",
        "value": "https://bzkf.github.io/obds-to-fhir/identifiers/tnm-t-kategorie-observation-id"
      } ],
      "status": "final",
      "code": {
        "extension": [ {
          "url": "https://www.medizininformatik-initiative.de/fhir/ext/modul-onko/StructureDefinition/mii-ex-onko-tnm-cp-praefix",
          "valueCodeableConcept": {
            "coding": [ {
              "system": "https://www.uicc.org/resources/tnm",
              "code": "c"
            } ]
          }
        } ],
        "coding": [ {
          "system": "http://snomed.info/sct",
          "code": "399504009",
          "display": "cT category (observable entity)"
        } ]
      },
      "subject": {
        "reference": "Patient/9142ee3ff7990f826ada966f03da267e0fe662f73858158f5e868b772cd68730"
      },
      "focus": [ {
        "reference": "Condition/257c056341e9015dfdd7d15cab0a7414b348796b2b01813101078b451af692c6"
      } ],
      "effectiveDateTime": "2020-02-16",
      "valueCodeableConcept": {
        "coding": [ {
          "system": "https://www.uicc.org/resources/tnm",
          "code": "1c"
        } ]
      },
      "method": {
        "coding": [ {
          "system": "https://www.medizininformatik-initiative.de/fhir/ext/modul-onko/CodeSystem/mii-cs-onko-tnm-version",
          "code": "8"
        } ]
      }
    },
    "request": {
      "method": "PUT",
      "url": "Observation/05a0550fe369d93b1e6563a1618e337548b93070e1e743749694bc1f381d34c9"
    }
  }, {
    "fullUrl": "Observation/394f180c21643ab9e233f7352f9576154831fb52ebc11dddbb6259ab760c2aa7",
    "resource": {
      "resourceType": "Observation",
      "id": "394f180c21643ab9e233f7352f9576154831fb52ebc11dddbb6259ab760c2aa7",
      "meta": {
        "profile": [ "https://www.medizininformatik-initiative.de/fhir/ext/modul-onko/StructureDefinition/mii-pr-onko-tnm-n-kategorie" ]
      },
      "identifier": [ {
        "system": "248_N",
        "value": "https://bzkf.github.io/obds-to-fhir/identifiers/tnm-n-kategorie-observation-id"
      } ],
      "status": "final",
      "code": {
        "extension": [ {
          "url": "https://www.medizininformatik-initiative.de/fhir/ext/modul-onko/StructureDefinition/mii-ex-onko-tnm-cp-praefix",
          "valueCodeableConcept": {
            "coding": [ {
              "system": "https://www.uicc.org/resources/tnm",
              "code": "c"
            } ]
          }
        } ],
        "coding": [ {
          "system": "http://snomed.info/sct",
          "code": "399534004",
          "display": "cN category (observable entity)"
        } ]
      },
      "subject": {
        "reference": "Patient/9142ee3ff7990f826ada966f03da267e0fe662f73858158f5e868b772cd68730"
      },
      "focus": [ {
        "reference": "Condition/257c056341e9015dfdd7d15cab0a7414b348796b2b01813101078b451af692c6"
      } ],
      "effectiveDateTime": "2020-02-16",
      "valueCodeableConcept": {
        "coding": [ {
          "system": "https://www.uicc.org/resources/tnm",
          "code": "0"
        } ]
      },
      "method": {
        "coding": [ {
          "system": "https://www.medizininformatik-initiative.de/fhir/ext/modul-onko/CodeSystem/mii-cs-onko-tnm-version",
          "code": "8"
        } ]
      }
    },
    "request": {
      "method": "PUT",
      "url": "Observation/394f180c21643ab9e233f7352f9576154831fb52ebc11dddbb6259ab760c2aa7"
    }
  }, {
    "fullUrl": "Observation/4c554bcbb2d33388560da67a9aaacb0256205834839b665a34b7e8d4754572af",
    "resource": {
      "resourceType": "Observation",
      "id": "4c554bcbb2d33388560da67a9aaacb0256205834839b665a34b7e8d4754572af",
      "meta": {
        "profile": [ "https://www.medizininformatik-initiative.de/fhir/ext/modul-onko/StructureDefinition/mii-pr-onko-tnm-m-kategorie" ]
      },
      "identifier": [ {
        "system": "248_M",
        "value": "https://bzkf.github.io/obds-to-fhir/identifiers/tnm-m-kategorie-observation-id"
      } ],
      "status": "final",
      "code": {
        "extension": [ {
          "url": "https://www.medizininformatik-initiative.de/fhir/ext/modul-onko/StructureDefinition/mii-ex-onko-tnm-cp-praefix",
          "valueCodeableConcept": {
            "coding": [ {
              "system": "https://www.uicc.org/resources/tnm",
              "code": "c"
            } ]
          }
        } ],
        "coding": [ {
          "system": "http://snomed.info/sct",
          "code": "399387003",
          "display": "cM category (observable entity)"
        } ]
      },
      "subject": {
        "reference": "Patient/9142ee3ff7990f826ada966f03da267e0fe662f73858158f5e868b772cd68730"
      },
      "focus": [ {
        "reference": "Condition/257c056341e9015dfdd7d15cab0a7414b348796b2b01813101078b451af692c6"
      } ],
      "effectiveDateTime": "2020-02-16",
      "valueCodeableConcept": {
        "coding": [ {
          "system": "https://www.uicc.org/resources/tnm",
          "code": "0"
        } ]
      },
      "method": {
        "coding": [ {
          "system": "https://www.medizininformatik-initiative.de/fhir/ext/modul-onko/CodeSystem/mii-cs-onko-tnm-version",
          "code": "8"
        } ]
      }
    },
    "request": {
      "method": "PUT",
      "url": "Observation/4c554bcbb2d33388560da67a9aaacb0256205834839b665a34b7e8d4754572af"
    }
  }, {
    "fullUrl": "Observation/ecd38f632167024ba1e08076cbe26c9e9a2c175928a78ce9c8ef23af7b716bce",
    "resource": {
      "resourceType": "Observation",
      "id": "ecd38f632167024ba1e08076cbe26c9e9a2c175928a78ce9c8ef23af7b716bce",
      "meta": {
        "profile": [ "https://www.medizininformatik-initiative.de/fhir/ext/modul-onko/StructureDefinition/mii-pr-onko-tnm-klassifikation" ]
      },
      "identifier": [ {
        "system": "https://bzkf.github.io/obds-to-fhir/identifiers/tnm-grouping-observation-id",
        "value": "248"
      } ],
      "status": "final",
      "code": {
        "coding": [ {
          "system": "http://snomed.info/sct",
          "code": "399537006",
          "display": "Clinical TNM stage grouping"
        } ]
      },
      "subject": {
        "reference": "Patient/9142ee3ff7990f826ada966f03da267e0fe662f73858158f5e868b772cd68730"
      },
      "focus": [ {
        "reference": "Condition/257c056341e9015dfdd7d15cab0a7414b348796b2b01813101078b451af692c6"
      } ],
      "effectiveDateTime": "2020-02-16",
      "valueCodeableConcept": {
        "coding": [ {
          "system": "https://www.uicc.org/resources/tnm",
          "code": "unknown",
          "display": "Unknown Stage"
        } ]
      },
      "method": {
        "coding": [ {
          "system": "https://www.medizininformatik-initiative.de/fhir/ext/modul-onko/CodeSystem/mii-cs-onko-tnm-version",
          "code": "8"
        } ]
      },
      "hasMember": [ {
        "reference": "Observation/05a0550fe369d93b1e6563a1618e337548b93070e1e743749694bc1f381d34c9"
      }, {
        "reference": "Observation/394f180c21643ab9e233f7352f9576154831fb52ebc11dddbb6259ab760c2aa7"
      }, {
        "reference": "Observation/4c554bcbb2d33388560da67a9aaacb0256205834839b665a34b7e8d4754572af"
      } ]
    },
    "request": {
      "method": "PUT",
      "url": "Observation/ecd38f632167024ba1e08076cbe26c9e9a2c175928a78ce9c8ef23af7b716bce"
    }
  }, {
    "fullUrl": "Procedure/5d82b21267e6777420638553ff71b16d4a62bf16027d31ca8ae6f0f2272b9eb3",
    "resource": {
      "resourceType": "Procedure",
      "id": "5d82b21267e6777420638553ff71b16d4a62bf16027d31ca8ae6f0f2272b9eb3",
      "meta": {
        "profile": [ "https://www.medizininformatik-initiative.de/fhir/ext/modul-onko/StructureDefinition/mii-pr-onko-operation" ]
      },
      "extension": [ {
        "url": "https://www.medizininformatik-initiative.de/fhir/ext/modul-onko/StructureDefinition/mii-ex-onko-operation-intention",
        "valueCodeableConcept": {
          "coding": [ {
            "system": "https://www.medizininformatik-initiative.de/fhir/ext/modul-onko/CodeSystem/mii-cs-onko-intention",
            "code": "K"
          } ]
        }
      } ],
      "identifier": [ {
        "system": "https://bzkf.github.io/obds-to-fhir/identifiers/operation-procedure-id",
        "value": "1415-870.a2"
      } ],
      "status": "completed",
      "category": {
        "coding": [ {
          "system": "http://snomed.info/sct",
          "code": "387713003",
          "display": "Surgical procedure"
        } ]
      },
      "code": {
        "coding": [ {
          "system": "http://fhir.de/CodeSystem/bfarm/ops",
          "version": "2020",
          "code": "5-870.a2"
        } ]
      },
      "subject": {
        "reference": "Patient/9142ee3ff7990f826ada966f03da267e0fe662f73858158f5e868b772cd68730"
      },
      "performedDateTime": "2020-03-02",
      "reasonReference": [ {
        "reference": "Condition/257c056341e9015dfdd7d15cab0a7414b348796b2b01813101078b451af692c6"
      } ],
      "outcome": {
        "coding": [ {
          "system": "https://www.medizininformatik-initiative.de/fhir/ext/modul-onko/CodeSystem/mii-cs-onko-residualstatus",
          "code": "R0"
        } ]
      }
    },
    "request": {
      "method": "PUT",
      "url": "Procedure/5d82b21267e6777420638553ff71b16d4a62bf16027d31ca8ae6f0f2272b9eb3"
    }
  }, {
    "fullUrl": "Procedure/a740bc0d84f8b7e842a49e8591e7e2f4fe91b2f8c6ef364f7e157db48998dc0c",
    "resource": {
      "resourceType": "Procedure",
      "id": "a740bc0d84f8b7e842a49e8591e7e2f4fe91b2f8c6ef364f7e157db48998dc0c",
      "meta": {
        "profile": [ "https://www.medizininformatik-initiative.de/fhir/ext/modul-onko/StructureDefinition/mii-pr-onko-operation" ]
      },
      "extension": [ {
        "url": "https://www.medizininformatik-initiative.de/fhir/ext/modul-onko/StructureDefinition/mii-ex-onko-operation-intention",
        "valueCodeableConcept": {
          "coding": [ {
            "system": "https://www.medizininformatik-initiative.de/fhir/ext/modul-onko/CodeSystem/mii-cs-onko-intention",
            "code": "K"
          } ]
        }
      } ],
      "identifier": [ {
        "system": "https://bzkf.github.io/obds-to-fhir/identifiers/operation-procedure-id",
        "value": "1415-402.12"
      } ],
      "status": "completed",
      "category": {
        "coding": [ {
          "system": "http://snomed.info/sct",
          "code": "387713003",
          "display": "Surgical procedure"
        } ]
      },
      "code": {
        "coding": [ {
          "system": "http://fhir.de/CodeSystem/bfarm/ops",
          "version": "2020",
          "code": "5-402.12"
        } ]
      },
      "subject": {
        "reference": "Patient/9142ee3ff7990f826ada966f03da267e0fe662f73858158f5e868b772cd68730"
      },
      "performedDateTime": "2020-03-02",
      "reasonReference": [ {
        "reference": "Condition/257c056341e9015dfdd7d15cab0a7414b348796b2b01813101078b451af692c6"
      } ],
      "outcome": {
        "coding": [ {
          "system": "https://www.medizininformatik-initiative.de/fhir/ext/modul-onko/CodeSystem/mii-cs-onko-residualstatus",
          "code": "R0"
        } ]
      }
    },
    "request": {
      "method": "PUT",
      "url": "Procedure/a740bc0d84f8b7e842a49e8591e7e2f4fe91b2f8c6ef364f7e157db48998dc0c"
    }
  }, {
    "fullUrl": "Observation/93d9505f2f1c6fb54202a03603290a65c50268b03881409350faf64c12a72af2",
    "resource": {
      "resourceType": "Observation",
      "id": "93d9505f2f1c6fb54202a03603290a65c50268b03881409350faf64c12a72af2",
      "identifier": [ {
        "system": "https://bzkf.github.io/obds-to-fhir/identifiers/residualstatus-observation-id",
        "value": "141"
      } ],
      "status": "final",
      "code": {
        "coding": [ {
          "system": "http://loinc.org",
          "code": "84892-9"
        } ]
      },
      "subject": {
        "reference": "Patient/9142ee3ff7990f826ada966f03da267e0fe662f73858158f5e868b772cd68730"
      },
      "focus": [ {
        "reference": "Condition/257c056341e9015dfdd7d15cab0a7414b348796b2b01813101078b451af692c6"
      } ],
      "effectiveDateTime": "2020-03-02",
      "valueCodeableConcept": {
        "coding": [ {
          "system": "https://www.medizininformatik-initiative.de/fhir/ext/modul-onko/CodeSystem/mii-cs-onko-residualstatus",
          "code": "R0"
        } ]
      }
    },
    "request": {
      "method": "PUT",
      "url": "Observation/93d9505f2f1c6fb54202a03603290a65c50268b03881409350faf64c12a72af2"
    }
  }, {
    "fullUrl": "Specimen/4b5091309dc551db425933e698c78b563e03929807c549d73c2f14801d1752ea",
    "resource": {
      "resourceType": "Specimen",
      "id": "4b5091309dc551db425933e698c78b563e03929807c549d73c2f14801d1752ea",
      "meta": {
        "profile": [ "https://www.medizininformatik-initiative.de/fhir/ext/modul-onko/StructureDefinition/mii-pr-onko-specimen" ]
      },
      "identifier": [ {
        "system": "https://bzkf.github.io/obds-to-fhir/identifiers/specimen-id",
        "value": "262"
      } ],
      "accessionIdentifier": {
        "value": "H1967/2020"
      },
      "subject": {
        "reference": "Patient/9142ee3ff7990f826ada966f03da267e0fe662f73858158f5e868b772cd68730"
      },
      "collection": {
        "collectedDateTime": "2020-03-05"
      }
    },
    "request": {
      "method": "PUT",
      "url": "Specimen/4b5091309dc551db425933e698c78b563e03929807c549d73c2f14801d1752ea"
    }
  }, {
    "fullUrl": "Observation/8d777710e1f6d199864b30775b01a2edac989faf9f1f6551f1f9397ee39e9d4f",
    "resource": {
      "resourceType": "Observation",
      "id": "8d777710e1f6d199864b30775b01a2edac989faf9f1f6551f1f9397ee39e9d4f",
      "meta": {
        "profile": [ "https://www.medizininformatik-initiative.de/fhir/ext/modul-onko/StructureDefinition/mii-pr-onko-histologie-icdo3" ]
      },
      "identifier": [ {
        "system": "https://bzkf.github.io/obds-to-fhir/identifiers/observation-histologie-id",
        "value": "262_ICDO3_8500/3"
      } ],
      "status": "final",
      "code": {
        "coding": [ {
          "system": "http://loinc.org",
          "code": "59847-4"
        } ]
      },
      "subject": {
        "reference": "Patient/9142ee3ff7990f826ada966f03da267e0fe662f73858158f5e868b772cd68730"
      },
      "focus": [ {
        "reference": "Condition/257c056341e9015dfdd7d15cab0a7414b348796b2b01813101078b451af692c6"
      } ],
      "effectiveDateTime": "2020-03-05",
      "valueCodeableConcept": {
        "coding": [ {
          "system": "http://terminology.hl7.org/CodeSystem/icd-o-3",
          "version": "31",
          "code": "8500/3"
        } ],
        "text": "Invasives duktales Karzinom o.n.A."
      },
      "specimen": {
        "reference": "Specimen/4b5091309dc551db425933e698c78b563e03929807c549d73c2f14801d1752ea"
      }
    },
    "request": {
      "method": "PUT",
      "url": "Observation/8d777710e1f6d199864b30775b01a2edac989faf9f1f6551f1f9397ee39e9d4f"
    }
  }, {
    "fullUrl": "Observation/14e58827b16efdd54a4de31201263406a63868f67c601150b15eb396d23cf498",
    "resource": {
      "resourceType": "Observation",
      "id": "14e58827b16efdd54a4de31201263406a63868f67c601150b15eb396d23cf498",
      "meta": {
        "profile": [ "https://www.medizininformatik-initiative.de/fhir/ext/modul-onko/StructureDefinition/mii-pr-onko-grading" ]
      },
      "identifier": [ {
        "system": "https://bzkf.github.io/obds-to-fhir/identifiers/grading-observation-id",
        "value": "262_Grading"
      } ],
      "status": "final",
      "category": [ {
        "coding": [ {
          "system": "http://terminology.hl7.org/CodeSystem/observation-category",
          "code": "laboratory"
        } ]
      } ],
      "code": {
        "coding": [ {
          "system": "http://loinc.org",
          "code": "33732-9"
        }, {
          "system": "http://snomed.info/sct",
          "code": "371469007"
        } ]
      },
      "subject": {
        "reference": "Patient/9142ee3ff7990f826ada966f03da267e0fe662f73858158f5e868b772cd68730"
      },
      "focus": [ {
        "reference": "Condition/257c056341e9015dfdd7d15cab0a7414b348796b2b01813101078b451af692c6"
      } ],
      "effectiveDateTime": "2020-03-05",
      "valueCodeableConcept": {
        "coding": [ {
          "system": "https://www.medizininformatik-initiative.de/fhir/ext/modul-onko/CodeSystem/mii-cs-onko-grading",
          "code": "2"
        } ]
      },
      "specimen": {
        "reference": "Specimen/4b5091309dc551db425933e698c78b563e03929807c549d73c2f14801d1752ea"
      }
    },
    "request": {
      "method": "PUT",
      "url": "Observation/14e58827b16efdd54a4de31201263406a63868f67c601150b15eb396d23cf498"
    }
  }, {
    "fullUrl": "Observation/ff4af73093731f45f8297de2106a4953c4b8eb6371b0821f349dd3adb7baf81f",
    "resource": {
      "resourceType": "Observation",
      "id": "ff4af73093731f45f8297de2106a4953c4b8eb6371b0821f349dd3adb7baf81f",
      "meta": {
        "profile": [ "https://www.medizininformatik-initiative.de/fhir/ext/modul-onko/StructureDefinition/mii-pr-onko-anzahl-befallene-lymphknoten" ]
      },
      "identifier": [ {
        "system": "https://bzkf.github.io/obds-to-fhir/identifiers/observation-histologie-id",
        "value": "262_befallen"
      } ],
      "status": "final",
      "category": [ {
        "coding": [ {
          "system": "http://terminology.hl7.org/CodeSystem/observation-category",
          "code": "laboratory"
        } ]
      } ],
      "code": {
        "coding": [ {
          "system": "http://loinc.org",
          "code": "21893-3"
        }, {
          "system": "http://snomed.info/sct",
          "code": "443527007"
        } ]
      },
      "subject": {
        "reference": "Patient/9142ee3ff7990f826ada966f03da267e0fe662f73858158f5e868b772cd68730"
      },
      "focus": [ {
        "reference": "Condition/257c056341e9015dfdd7d15cab0a7414b348796b2b01813101078b451af692c6"
      } ],
      "effectiveDateTime": "2020-03-05",
      "valueQuantity": {
        "value": 4,
        "unit": "#",
        "system": "http://unitsofmeasure.org",
        "code": "1"
      },
      "specimen": {
        "reference": "Specimen/4b5091309dc551db425933e698c78b563e03929807c549d73c2f14801d1752ea"
      }
    },
    "request": {
      "method": "PUT",
      "url": "Observation/ff4af73093731f45f8297de2106a4953c4b8eb6371b0821f349dd3adb7baf81f"
    }
  }, {
    "fullUrl": "Observation/bd3ce1b682f3002444520e74887fa8a81129c2885c62d427ef57c827fba62d28",
    "resource": {
      "resourceType": "Observation",
      "id": "bd3ce1b682f3002444520e74887fa8a81129c2885c62d427ef57c827fba62d28",
      "meta": {
        "profile": [ "https://www.medizininformatik-initiative.de/fhir/ext/modul-onko/StructureDefinition/mii-pr-onko-anzahl-untersuchte-lymphknoten" ]
      },
      "identifier": [ {
        "system": "https://bzkf.github.io/obds-to-fhir/identifiers/observation-histologie-id",
        "value": "262_untersucht"
      } ],
      "status": "final",
      "category": [ {
        "coding": [ {
          "system": "http://terminology.hl7.org/CodeSystem/observation-category",
          "code": "laboratory"
        } ]
      } ],
      "code": {
        "coding": [ {
          "system": "http://loinc.org",
          "code": "21894-1"
        }, {
          "system": "http://snomed.info/sct",
          "code": "444025001"
        } ]
      },
      "subject": {
        "reference": "Patient/9142ee3ff7990f826ada966f03da267e0fe662f73858158f5e868b772cd68730"
      },
      "focus": [ {
        "reference": "Condition/257c056341e9015dfdd7d15cab0a7414b348796b2b01813101078b451af692c6"
      } ],
      "effectiveDateTime": "2020-03-05",
      "valueQuantity": {
        "value": 13,
        "unit": "#",
        "system": "http://unitsofmeasure.org",
        "code": "1"
      },
      "specimen": {
        "reference": "Specimen/4b5091309dc551db425933e698c78b563e03929807c549d73c2f14801d1752ea"
      }
    },
    "request": {
      "method": "PUT",
      "url": "Observation/bd3ce1b682f3002444520e74887fa8a81129c2885c62d427ef57c827fba62d28"
    }
  }, {
    "fullUrl": "Observation/022c74ff6fdc143e876eed2273b38611b2b93f03a9fb3f65a3dc2d99519a267f",
    "resource": {
      "resourceType": "Observation",
      "id": "022c74ff6fdc143e876eed2273b38611b2b93f03a9fb3f65a3dc2d99519a267f",
      "meta": {
        "profile": [ "https://www.medizininformatik-initiative.de/fhir/ext/modul-onko/StructureDefinition/mii-pr-onko-tnm-t-kategorie" ]
      },
      "identifier": [ {
        "system": "249_T",
        "value": "https://bzkf.github.io/obds-to-fhir/identifiers/tnm-t-kategorie-observation-id"
      } ],
      "status": "final",
      "code": {
        "extension": [ {
          "url": "https://www.medizininformatik-initiative.de/fhir/ext/modul-onko/StructureDefinition/mii-ex-onko-tnm-cp-praefix",
          "valueCodeableConcept": {
            "coding": [ {
              "system": "https://www.uicc.org/resources/tnm",
              "code": "p"
            } ]
          }
        } ],
        "coding": [ {
          "system": "http://snomed.info/sct",
          "code": "384625004",
          "display": "pT category (observable entity)"
        } ]
      },
      "subject": {
        "reference": "Patient/9142ee3ff7990f826ada966f03da267e0fe662f73858158f5e868b772cd68730"
      },
      "focus": [ {
        "reference": "Condition/257c056341e9015dfdd7d15cab0a7414b348796b2b01813101078b451af692c6"
      } ],
      "effectiveDateTime": "2020-03-02",
      "valueCodeableConcept": {
        "coding": [ {
          "system": "https://www.uicc.org/resources/tnm",
          "code": "2"
        } ]
      },
      "method": {
        "coding": [ {
          "system": "https://www.medizininformatik-initiative.de/fhir/ext/modul-onko/CodeSystem/mii-cs-onko-tnm-version",
          "code": "8"
        } ]
      }
    },
    "request": {
      "method": "PUT",
      "url": "Observation/022c74ff6fdc143e876eed2273b38611b2b93f03a9fb3f65a3dc2d99519a267f"
    }
  }, {
    "fullUrl": "Observation/4b2251a96bbb9254bff3d448e9db1812765322c93bff7b29e26c0d0f6b8b5a66",
    "resource": {
      "resourceType": "Observation",
      "id": "4b2251a96bbb9254bff3d448e9db1812765322c93bff7b29e26c0d0f6b8b5a66",
      "meta": {
        "profile": [ "https://www.medizininformatik-initiative.de/fhir/ext/modul-onko/StructureDefinition/mii-pr-onko-tnm-n-kategorie" ]
      },
      "identifier": [ {
        "system": "249_N",
        "value": "https://bzkf.github.io/obds-to-fhir/identifiers/tnm-n-kategorie-observation-id"
      } ],
      "status": "final",
      "code": {
        "extension": [ {
          "url": "https://www.medizininformatik-initiative.de/fhir/ext/modul-onko/StructureDefinition/mii-ex-onko-tnm-cp-praefix",
          "valueCodeableConcept": {
            "coding": [ {
              "system": "https://www.uicc.org/resources/tnm",
              "code": "p"
            } ]
          }
        } ],
        "coding": [ {
          "system": "http://snomed.info/sct",
          "code": "371494008",
          "display": "pN category (observable entity)"
        } ]
      },
      "subject": {
        "reference": "Patient/9142ee3ff7990f826ada966f03da267e0fe662f73858158f5e868b772cd68730"
      },
      "focus": [ {
        "reference": "Condition/257c056341e9015dfdd7d15cab0a7414b348796b2b01813101078b451af692c6"
      } ],
      "effectiveDateTime": "2020-03-02",
      "valueCodeableConcept": {
        "coding": [ {
          "system": "https://www.uicc.org/resources/tnm",
          "code": "2"
        } ]
      },
      "method": {
        "coding": [ {
          "system": "https://www.medizininformatik-initiative.de/fhir/ext/modul-onko/CodeSystem/mii-cs-onko-tnm-version",
          "code": "8"
        } ]
      }
    },
    "request": {
      "method": "PUT",
      "url": "Observation/4b2251a96bbb9254bff3d448e9db1812765322c93bff7b29e26c0d0f6b8b5a66"
    }
  }, {
    "fullUrl": "Observation/41f951c6478ca82291830a5ad560eb5a51678e6b70bd0382aec08ab9fded9bac",
    "resource": {
      "resourceType": "Observation",
      "id": "41f951c6478ca82291830a5ad560eb5a51678e6b70bd0382aec08ab9fded9bac",
      "meta": {
        "profile": [ "https://www.medizininformatik-initiative.de/fhir/ext/modul-onko/StructureDefinition/mii-pr-onko-tnm-m-kategorie" ]
      },
      "identifier": [ {
        "system": "249_M",
        "value": "https://bzkf.github.io/obds-to-fhir/identifiers/tnm-m-kategorie-observation-id"
      } ],
      "status": "final",
      "code": {
        "extension": [ {
          "url": "https://www.medizininformatik-initiative.de/fhir/ext/modul-onko/StructureDefinition/mii-ex-onko-tnm-cp-praefix",
          "valueCodeableConcept": {
            "coding": [ {
              "system": "https://www.uicc.org/resources/tnm",
              "code": "c"
            } ]
          }
        } ],
        "coding": [ {
          "system": "http://snomed.info/sct",
          "code": "399387003",
          "display": "cM category (observable entity)"
        } ]
      },
      "subject": {
        "reference": "Patient/9142ee3ff7990f826ada966f03da267e0fe662f73858158f5e868b772cd68730"
      },
      "focus": [ {
        "reference": "Condition/257c056341e9015dfdd7d15cab0a7414b348796b2b01813101078b451af692c6"
      } ],
      "effectiveDateTime": "2020-03-02",
      "valueCodeableConcept": {
        "coding": [ {
          "system": "https://www.uicc.org/resources/tnm",
          "code": "0"
        } ]
      },
      "method": {
        "coding": [ {
          "system": "https://www.medizininformatik-initiative.de/fhir/ext/modul-onko/CodeSystem/mii-cs-onko-tnm-version",
          "code": "8"
        } ]
      }
    },
    "request": {
      "method": "PUT",
      "url": "Observation/41f951c6478ca82291830a5ad560eb5a51678e6b70bd0382aec08ab9fded9bac"
    }
  }, {
    "fullUrl": "Observation/3d90708d7a76e4c8987876a35a208cce1f1a4acbf3031c022938dc065126b8bb",
    "resource": {
      "resourceType": "Observation",
      "id": "3d90708d7a76e4c8987876a35a208cce1f1a4acbf3031c022938dc065126b8bb",
      "meta": {
        "profile": [ "https://www.medizininformatik-initiative.de/fhir/ext/modul-onko/StructureDefinition/mii-pr-onko-tnm-m-symbol" ]
      },
      "identifier": [ {
        "system": "249_m",
        "value": "https://bzkf.github.io/obds-to-fhir/identifiers/tnm-m-symbol-observation-id"
      } ],
      "status": "final",
      "code": {
        "coding": [ {
          "system": "http://loinc.org",
          "code": "42030-7"
        } ]
      },
      "subject": {
        "reference": "Patient/9142ee3ff7990f826ada966f03da267e0fe662f73858158f5e868b772cd68730"
      },
      "focus": [ {
        "reference": "Condition/257c056341e9015dfdd7d15cab0a7414b348796b2b01813101078b451af692c6"
      } ],
      "effectiveDateTime": "2020-03-02",
      "valueCodeableConcept": {
        "coding": [ {
          "system": "https://www.uicc.org/resources/tnm",
          "code": "2"
        } ]
      },
      "method": {
        "coding": [ {
          "system": "https://www.medizininformatik-initiative.de/fhir/ext/modul-onko/CodeSystem/mii-cs-onko-tnm-version",
          "code": "8"
        } ]
      }
    },
    "request": {
      "method": "PUT",
      "url": "Observation/3d90708d7a76e4c8987876a35a208cce1f1a4acbf3031c022938dc065126b8bb"
    }
  }, {
    "fullUrl": "Observation/ae08d336486f09caf21cc8ab3a31f97110653ec12915b66187af6b076e77e1dd",
    "resource": {
      "resourceType": "Observation",
      "id": "ae08d336486f09caf21cc8ab3a31f97110653ec12915b66187af6b076e77e1dd",
      "meta": {
        "profile": [ "https://www.medizininformatik-initiative.de/fhir/ext/modul-onko/StructureDefinition/mii-pr-onko-tnm-l-kategorie" ]
      },
      "identifier": [ {
        "system": "249_L",
        "value": "https://bzkf.github.io/obds-to-fhir/identifiers/tnm-l-kategorie-observation-id"
      } ],
      "status": "final",
      "code": {
        "coding": [ {
          "system": "http://snomed.info/sct",
          "code": "395715009"
        } ]
      },
      "subject": {
        "reference": "Patient/9142ee3ff7990f826ada966f03da267e0fe662f73858158f5e868b772cd68730"
      },
      "focus": [ {
        "reference": "Condition/257c056341e9015dfdd7d15cab0a7414b348796b2b01813101078b451af692c6"
      } ],
      "effectiveDateTime": "2020-03-02",
      "valueCodeableConcept": {
        "coding": [ {
          "system": "https://www.uicc.org/resources/tnm",
          "code": "L1"
        } ]
      },
      "method": {
        "coding": [ {
          "system": "https://www.medizininformatik-initiative.de/fhir/ext/modul-onko/CodeSystem/mii-cs-onko-tnm-version",
          "code": "8"
        } ]
      }
    },
    "request": {
      "method": "PUT",
      "url": "Observation/ae08d336486f09caf21cc8ab3a31f97110653ec12915b66187af6b076e77e1dd"
    }
  }, {
    "fullUrl": "Observation/00c5b2b5dc113ae5cda7243ba6dc1e452237f3e3a41537f969b553ba24a25e6a",
    "resource": {
      "resourceType": "Observation",
      "id": "00c5b2b5dc113ae5cda7243ba6dc1e452237f3e3a41537f969b553ba24a25e6a",
      "meta": {
        "profile": [ "\thttps://www.medizininformatik-initiative.de/fhir/ext/modul-onko/StructureDefinition/mii-pr-onko-tnm-pn-kategorie" ]
      },
      "identifier": [ {
        "system": "249_Pn",
        "value": "https://bzkf.github.io/obds-to-fhir/identifiers/tnm-pn-kategorie-observation-id"
      } ],
      "status": "final",
      "code": {
        "coding": [ {
          "system": "http://snomed.info/sct",
          "code": "371513001"
        } ]
      },
      "subject": {
        "reference": "Patient/9142ee3ff7990f826ada966f03da267e0fe662f73858158f5e868b772cd68730"
      },
      "focus": [ {
        "reference": "Condition/257c056341e9015dfdd7d15cab0a7414b348796b2b01813101078b451af692c6"
      } ],
      "effectiveDateTime": "2020-03-02",
      "valueCodeableConcept": {
        "coding": [ {
          "system": "https://www.uicc.org/resources/tnm",
          "code": "Pn0"
        } ]
      },
      "method": {
        "coding": [ {
          "system": "https://www.medizininformatik-initiative.de/fhir/ext/modul-onko/CodeSystem/mii-cs-onko-tnm-version",
          "code": "8"
        } ]
      }
    },
    "request": {
      "method": "PUT",
      "url": "Observation/00c5b2b5dc113ae5cda7243ba6dc1e452237f3e3a41537f969b553ba24a25e6a"
    }
  }, {
    "fullUrl": "Observation/f4a91810f7492793f3890c4728cd2a255407ab1e8e75fae8c73a6d3fb8d67a6a",
    "resource": {
      "resourceType": "Observation",
      "id": "f4a91810f7492793f3890c4728cd2a255407ab1e8e75fae8c73a6d3fb8d67a6a",
      "meta": {
        "profile": [ "https://www.medizininformatik-initiative.de/fhir/ext/modul-onko/StructureDefinition/mii-pr-onko-tnm-v-kategorie" ]
      },
      "identifier": [ {
        "system": "249_V",
        "value": "https://bzkf.github.io/obds-to-fhir/identifiers/tnm-v-kategorie-observation-id"
      } ],
      "status": "final",
      "code": {
        "coding": [ {
          "system": "http://snomed.info/sct",
          "code": "371493002"
        } ]
      },
      "subject": {
        "reference": "Patient/9142ee3ff7990f826ada966f03da267e0fe662f73858158f5e868b772cd68730"
      },
      "focus": [ {
        "reference": "Condition/257c056341e9015dfdd7d15cab0a7414b348796b2b01813101078b451af692c6"
      } ],
      "effectiveDateTime": "2020-03-02",
      "valueCodeableConcept": {
        "coding": [ {
          "system": "https://www.uicc.org/resources/tnm",
          "code": "V0"
        } ]
      },
      "method": {
        "coding": [ {
          "system": "https://www.medizininformatik-initiative.de/fhir/ext/modul-onko/CodeSystem/mii-cs-onko-tnm-version",
          "code": "8"
        } ]
      }
    },
    "request": {
      "method": "PUT",
      "url": "Observation/f4a91810f7492793f3890c4728cd2a255407ab1e8e75fae8c73a6d3fb8d67a6a"
    }
  }, {
    "fullUrl": "Observation/9cc0d8877fcda3726e1a475018ca79ddce7a186561e8412dcfd97e1c00d92916",
    "resource": {
      "resourceType": "Observation",
      "id": "9cc0d8877fcda3726e1a475018ca79ddce7a186561e8412dcfd97e1c00d92916",
      "meta": {
        "profile": [ "https://www.medizininformatik-initiative.de/fhir/ext/modul-onko/StructureDefinition/mii-pr-onko-tnm-klassifikation" ]
      },
      "identifier": [ {
        "system": "https://bzkf.github.io/obds-to-fhir/identifiers/tnm-grouping-observation-id",
        "value": "249"
      } ],
      "status": "final",
      "code": {
        "coding": [ {
          "system": "http://snomed.info/sct",
          "code": "399588009",
          "display": "TNM stage grouping"
        } ]
      },
      "subject": {
        "reference": "Patient/9142ee3ff7990f826ada966f03da267e0fe662f73858158f5e868b772cd68730"
      },
      "focus": [ {
        "reference": "Condition/257c056341e9015dfdd7d15cab0a7414b348796b2b01813101078b451af692c6"
      } ],
      "effectiveDateTime": "2020-03-02",
      "valueCodeableConcept": {
        "coding": [ {
          "system": "https://www.uicc.org/resources/tnm",
          "code": "IIIA",
          "display": "Stadium IIIA"
        } ]
      },
      "method": {
        "coding": [ {
          "system": "https://www.medizininformatik-initiative.de/fhir/ext/modul-onko/CodeSystem/mii-cs-onko-tnm-version",
          "code": "8"
        } ]
      },
      "hasMember": [ {
        "reference": "Observation/022c74ff6fdc143e876eed2273b38611b2b93f03a9fb3f65a3dc2d99519a267f"
      }, {
        "reference": "Observation/4b2251a96bbb9254bff3d448e9db1812765322c93bff7b29e26c0d0f6b8b5a66"
      }, {
        "reference": "Observation/41f951c6478ca82291830a5ad560eb5a51678e6b70bd0382aec08ab9fded9bac"
      }, {
        "reference": "Observation/3d90708d7a76e4c8987876a35a208cce1f1a4acbf3031c022938dc065126b8bb"
      }, {
        "reference": "Observation/ae08d336486f09caf21cc8ab3a31f97110653ec12915b66187af6b076e77e1dd"
      }, {
        "reference": "Observation/00c5b2b5dc113ae5cda7243ba6dc1e452237f3e3a41537f969b553ba24a25e6a"
      }, {
        "reference": "Observation/f4a91810f7492793f3890c4728cd2a255407ab1e8e75fae8c73a6d3fb8d67a6a"
      } ]
    },
    "request": {
      "method": "PUT",
      "url": "Observation/9cc0d8877fcda3726e1a475018ca79ddce7a186561e8412dcfd97e1c00d92916"
    }
  }, {
    "fullUrl": "Procedure/88ea7e639f67d5ba830f13b8c67e1229df4075e1fd0f7488030704dcb16912f5",
    "resource": {
      "resourceType": "Procedure",
      "id": "88ea7e639f67d5ba830f13b8c67e1229df4075e1fd0f7488030704dcb16912f5",
      "meta": {
        "profile": [ "https://www.medizininformatik-initiative.de/fhir/ext/modul-onko/StructureDefinition/mii-pr-onko-operation" ]
      },
      "extension": [ {
        "url": "https://www.medizininformatik-initiative.de/fhir/ext/modul-onko/StructureDefinition/mii-ex-onko-operation-intention",
        "valueCodeableConcept": {
          "coding": [ {
            "system": "https://www.medizininformatik-initiative.de/fhir/ext/modul-onko/CodeSystem/mii-cs-onko-intention",
            "code": "K"
          } ]
        }
      } ],
      "identifier": [ {
        "system": "https://bzkf.github.io/obds-to-fhir/identifiers/operation-procedure-id",
        "value": "1425-870.a1"
      } ],
      "status": "completed",
      "category": {
        "coding": [ {
          "system": "http://snomed.info/sct",
          "code": "387713003",
          "display": "Surgical procedure"
        } ]
      },
      "code": {
        "coding": [ {
          "system": "http://fhir.de/CodeSystem/bfarm/ops",
          "version": "2020",
          "code": "5-870.a1"
        } ]
      },
      "subject": {
        "reference": "Patient/9142ee3ff7990f826ada966f03da267e0fe662f73858158f5e868b772cd68730"
      },
      "performedDateTime": "2020-02-20",
      "reasonReference": [ {
        "reference": "Condition/257c056341e9015dfdd7d15cab0a7414b348796b2b01813101078b451af692c6"
      } ],
      "outcome": {
        "coding": [ {
          "system": "https://www.medizininformatik-initiative.de/fhir/ext/modul-onko/CodeSystem/mii-cs-onko-residualstatus",
          "code": "R1"
        } ]
      }
    },
    "request": {
      "method": "PUT",
      "url": "Procedure/88ea7e639f67d5ba830f13b8c67e1229df4075e1fd0f7488030704dcb16912f5"
    }
  }, {
    "fullUrl": "Procedure/331bcbb7adf285c2a0c75edc7f0d27d8ed4676fcb0f1795e9bd09dfe694331b4",
    "resource": {
      "resourceType": "Procedure",
      "id": "331bcbb7adf285c2a0c75edc7f0d27d8ed4676fcb0f1795e9bd09dfe694331b4",
      "meta": {
        "profile": [ "https://www.medizininformatik-initiative.de/fhir/ext/modul-onko/StructureDefinition/mii-pr-onko-operation" ]
      },
      "extension": [ {
        "url": "https://www.medizininformatik-initiative.de/fhir/ext/modul-onko/StructureDefinition/mii-ex-onko-operation-intention",
        "valueCodeableConcept": {
          "coding": [ {
            "system": "https://www.medizininformatik-initiative.de/fhir/ext/modul-onko/CodeSystem/mii-cs-onko-intention",
            "code": "K"
          } ]
        }
      } ],
      "identifier": [ {
        "system": "https://bzkf.github.io/obds-to-fhir/identifiers/operation-procedure-id",
        "value": "1425-401.11"
      } ],
      "status": "completed",
      "category": {
        "coding": [ {
          "system": "http://snomed.info/sct",
          "code": "387713003",
          "display": "Surgical procedure"
        } ]
      },
      "code": {
        "coding": [ {
          "system": "http://fhir.de/CodeSystem/bfarm/ops",
          "version": "2020",
          "code": "5-401.11"
        } ]
      },
      "subject": {
        "reference": "Patient/9142ee3ff7990f826ada966f03da267e0fe662f73858158f5e868b772cd68730"
      },
      "performedDateTime": "2020-02-20",
      "reasonReference": [ {
        "reference": "Condition/257c056341e9015dfdd7d15cab0a7414b348796b2b01813101078b451af692c6"
      } ],
      "outcome": {
        "coding": [ {
          "system": "https://www.medizininformatik-initiative.de/fhir/ext/modul-onko/CodeSystem/mii-cs-onko-residualstatus",
          "code": "R1"
        } ]
      }
    },
    "request": {
      "method": "PUT",
      "url": "Procedure/331bcbb7adf285c2a0c75edc7f0d27d8ed4676fcb0f1795e9bd09dfe694331b4"
    }
  }, {
    "fullUrl": "Specimen/025386219f141abc79f578281e6b276da109c5bee70767e2638a2df67e812687",
    "resource": {
      "resourceType": "Specimen",
      "id": "025386219f141abc79f578281e6b276da109c5bee70767e2638a2df67e812687",
      "meta": {
        "profile": [ "https://www.medizininformatik-initiative.de/fhir/ext/modul-onko/StructureDefinition/mii-pr-onko-specimen" ]
      },
      "identifier": [ {
        "system": "https://bzkf.github.io/obds-to-fhir/identifiers/specimen-id",
        "value": "263"
      } ],
      "accessionIdentifier": {
        "value": "H1823/2020"
      },
      "subject": {
        "reference": "Patient/9142ee3ff7990f826ada966f03da267e0fe662f73858158f5e868b772cd68730"
      },
      "collection": {
        "collectedDateTime": "2020-02-20"
      }
    },
    "request": {
      "method": "PUT",
      "url": "Specimen/025386219f141abc79f578281e6b276da109c5bee70767e2638a2df67e812687"
    }
  }, {
    "fullUrl": "Observation/29c8e78106a64cbbba5ffe04d6172c523ead88dc59ee72bd8ada1397b953deb6",
    "resource": {
      "resourceType": "Observation",
      "id": "29c8e78106a64cbbba5ffe04d6172c523ead88dc59ee72bd8ada1397b953deb6",
      "meta": {
        "profile": [ "https://www.medizininformatik-initiative.de/fhir/ext/modul-onko/StructureDefinition/mii-pr-onko-histologie-icdo3" ]
      },
      "identifier": [ {
        "system": "https://bzkf.github.io/obds-to-fhir/identifiers/observation-histologie-id",
        "value": "263_ICDO3_8500/3"
      } ],
      "status": "final",
      "code": {
        "coding": [ {
          "system": "http://loinc.org",
          "code": "59847-4"
        } ]
      },
      "subject": {
        "reference": "Patient/9142ee3ff7990f826ada966f03da267e0fe662f73858158f5e868b772cd68730"
      },
      "focus": [ {
        "reference": "Condition/257c056341e9015dfdd7d15cab0a7414b348796b2b01813101078b451af692c6"
      } ],
      "effectiveDateTime": "2020-02-20",
      "valueCodeableConcept": {
        "coding": [ {
          "system": "http://terminology.hl7.org/CodeSystem/icd-o-3",
          "version": "31",
          "code": "8500/3"
        } ],
        "text": "Invasives duktales Karzinom o.n.A."
      },
      "specimen": {
        "reference": "Specimen/025386219f141abc79f578281e6b276da109c5bee70767e2638a2df67e812687"
      }
    },
    "request": {
      "method": "PUT",
      "url": "Observation/29c8e78106a64cbbba5ffe04d6172c523ead88dc59ee72bd8ada1397b953deb6"
    }
  }, {
    "fullUrl": "Observation/6f14d3d704457f582316829675246d1d73d4180ff2fa1c616b08b3f97c924d4b",
    "resource": {
      "resourceType": "Observation",
      "id": "6f14d3d704457f582316829675246d1d73d4180ff2fa1c616b08b3f97c924d4b",
      "meta": {
        "profile": [ "https://www.medizininformatik-initiative.de/fhir/ext/modul-onko/StructureDefinition/mii-pr-onko-grading" ]
      },
      "identifier": [ {
        "system": "https://bzkf.github.io/obds-to-fhir/identifiers/grading-observation-id",
        "value": "263_Grading"
      } ],
      "status": "final",
      "category": [ {
        "coding": [ {
          "system": "http://terminology.hl7.org/CodeSystem/observation-category",
          "code": "laboratory"
        } ]
      } ],
      "code": {
        "coding": [ {
          "system": "http://loinc.org",
          "code": "33732-9"
        }, {
          "system": "http://snomed.info/sct",
          "code": "371469007"
        } ]
      },
      "subject": {
        "reference": "Patient/9142ee3ff7990f826ada966f03da267e0fe662f73858158f5e868b772cd68730"
      },
      "focus": [ {
        "reference": "Condition/257c056341e9015dfdd7d15cab0a7414b348796b2b01813101078b451af692c6"
      } ],
      "effectiveDateTime": "2020-02-20",
      "valueCodeableConcept": {
        "coding": [ {
          "system": "https://www.medizininformatik-initiative.de/fhir/ext/modul-onko/CodeSystem/mii-cs-onko-grading",
          "code": "2"
        } ]
      },
      "specimen": {
        "reference": "Specimen/025386219f141abc79f578281e6b276da109c5bee70767e2638a2df67e812687"
      }
    },
    "request": {
      "method": "PUT",
      "url": "Observation/6f14d3d704457f582316829675246d1d73d4180ff2fa1c616b08b3f97c924d4b"
    }
  }, {
    "fullUrl": "Observation/17358788788562c605162a811ec9380e3366bc08f7bc8df9ff38d9ea923a15de",
    "resource": {
      "resourceType": "Observation",
      "id": "17358788788562c605162a811ec9380e3366bc08f7bc8df9ff38d9ea923a15de",
      "meta": {
        "profile": [ "https://www.medizininformatik-initiative.de/fhir/ext/modul-onko/StructureDefinition/mii-pr-onko-anzahl-befallene-sentinel-lymphknoten" ]
      },
      "identifier": [ {
        "system": "https://bzkf.github.io/obds-to-fhir/identifiers/observation-histologie-id",
        "value": "263_befallen_sentinel"
      } ],
      "status": "final",
      "category": [ {
        "coding": [ {
          "system": "http://terminology.hl7.org/CodeSystem/observation-category",
          "code": "laboratory"
        } ]
      } ],
      "code": {
        "coding": [ {
          "system": "http://loinc.org",
          "code": "92832-5"
        }, {
          "system": "http://snomed.info/sct",
          "code": "1264491009"
        } ]
      },
      "subject": {
        "reference": "Patient/9142ee3ff7990f826ada966f03da267e0fe662f73858158f5e868b772cd68730"
      },
      "focus": [ {
        "reference": "Condition/257c056341e9015dfdd7d15cab0a7414b348796b2b01813101078b451af692c6"
      } ],
      "effectiveDateTime": "2020-02-20",
      "valueQuantity": {
        "value": 2,
        "unit": "#",
        "system": "http://unitsofmeasure.org",
        "code": "1"
      },
      "specimen": {
        "reference": "Specimen/025386219f141abc79f578281e6b276da109c5bee70767e2638a2df67e812687"
      }
    },
    "request": {
      "method": "PUT",
      "url": "Observation/17358788788562c605162a811ec9380e3366bc08f7bc8df9ff38d9ea923a15de"
    }
  }, {
    "fullUrl": "Observation/18274e7560629ff8978478176ca25723b0038be7d9f7d9515ff84cb7284870c7",
    "resource": {
      "resourceType": "Observation",
      "id": "18274e7560629ff8978478176ca25723b0038be7d9f7d9515ff84cb7284870c7",
      "meta": {
        "profile": [ "https://www.medizininformatik-initiative.de/fhir/ext/modul-onko/StructureDefinition/mii-pr-onko-anzahl-untersuchte-sentinel-lymphknoten" ]
      },
      "identifier": [ {
        "system": "https://bzkf.github.io/obds-to-fhir/identifiers/observation-histologie-id",
        "value": "263_untersucht_sentinel"
      } ],
      "status": "final",
      "category": [ {
        "coding": [ {
          "system": "http://terminology.hl7.org/CodeSystem/observation-category",
          "code": "laboratory"
        } ]
      } ],
      "code": {
        "coding": [ {
          "system": "http://loinc.org",
          "code": "85347-3"
        }, {
          "system": "http://snomed.info/sct",
          "code": "444411008"
        } ]
      },
      "subject": {
        "reference": "Patient/9142ee3ff7990f826ada966f03da267e0fe662f73858158f5e868b772cd68730"
      },
      "focus": [ {
        "reference": "Condition/257c056341e9015dfdd7d15cab0a7414b348796b2b01813101078b451af692c6"
      } ],
      "effectiveDateTime": "2020-02-20",
      "valueQuantity": {
        "value": 3,
        "unit": "#",
        "system": "http://unitsofmeasure.org",
        "code": "1"
      },
      "specimen": {
        "reference": "Specimen/025386219f141abc79f578281e6b276da109c5bee70767e2638a2df67e812687"
      }
    },
    "request": {
      "method": "PUT",
      "url": "Observation/18274e7560629ff8978478176ca25723b0038be7d9f7d9515ff84cb7284870c7"
    }
  }, {
    "fullUrl": "Observation/ccc85c14b611e36a91c66b2db4f522d67f7befbb7bbc999a32ac1b86cc7f3a4f",
    "resource": {
      "resourceType": "Observation",
      "id": "ccc85c14b611e36a91c66b2db4f522d67f7befbb7bbc999a32ac1b86cc7f3a4f",
      "meta": {
        "profile": [ "https://www.medizininformatik-initiative.de/fhir/ext/modul-onko/StructureDefinition/mii-pr-onko-tnm-t-kategorie" ]
      },
      "identifier": [ {
        "system": "250_T",
        "value": "https://bzkf.github.io/obds-to-fhir/identifiers/tnm-t-kategorie-observation-id"
      } ],
      "status": "final",
      "code": {
        "extension": [ {
          "url": "https://www.medizininformatik-initiative.de/fhir/ext/modul-onko/StructureDefinition/mii-ex-onko-tnm-cp-praefix",
          "valueCodeableConcept": {
            "coding": [ {
              "system": "https://www.uicc.org/resources/tnm",
              "code": "p"
            } ]
          }
        } ],
        "coding": [ {
          "system": "http://snomed.info/sct",
          "code": "384625004",
          "display": "pT category (observable entity)"
        } ]
      },
      "subject": {
        "reference": "Patient/9142ee3ff7990f826ada966f03da267e0fe662f73858158f5e868b772cd68730"
      },
      "focus": [ {
        "reference": "Condition/257c056341e9015dfdd7d15cab0a7414b348796b2b01813101078b451af692c6"
      } ],
      "effectiveDateTime": "2020-02-20",
      "valueCodeableConcept": {
        "coding": [ {
          "system": "https://www.uicc.org/resources/tnm",
          "code": "2"
        } ]
      },
      "method": {
        "coding": [ {
          "system": "https://www.medizininformatik-initiative.de/fhir/ext/modul-onko/CodeSystem/mii-cs-onko-tnm-version",
          "code": "8"
        } ]
      }
    },
    "request": {
      "method": "PUT",
      "url": "Observation/ccc85c14b611e36a91c66b2db4f522d67f7befbb7bbc999a32ac1b86cc7f3a4f"
    }
  }, {
    "fullUrl": "Observation/a0fb9e9de52d60a7a92a2ba539782b57d61f89cd3bbf9404a618db240918dd31",
    "resource": {
      "resourceType": "Observation",
      "id": "a0fb9e9de52d60a7a92a2ba539782b57d61f89cd3bbf9404a618db240918dd31",
      "meta": {
        "profile": [ "https://www.medizininformatik-initiative.de/fhir/ext/modul-onko/StructureDefinition/mii-pr-onko-tnm-n-kategorie" ]
      },
      "identifier": [ {
        "system": "250_N",
        "value": "https://bzkf.github.io/obds-to-fhir/identifiers/tnm-n-kategorie-observation-id"
      } ],
      "status": "final",
      "code": {
        "extension": [ {
          "url": "https://www.medizininformatik-initiative.de/fhir/ext/modul-onko/StructureDefinition/mii-ex-onko-tnm-cp-praefix",
          "valueCodeableConcept": {
            "coding": [ {
              "system": "https://www.uicc.org/resources/tnm",
              "code": "p"
            } ]
          }
        } ],
        "coding": [ {
          "system": "http://snomed.info/sct",
          "code": "371494008",
          "display": "pN category (observable entity)"
        } ]
      },
      "subject": {
        "reference": "Patient/9142ee3ff7990f826ada966f03da267e0fe662f73858158f5e868b772cd68730"
      },
      "focus": [ {
        "reference": "Condition/257c056341e9015dfdd7d15cab0a7414b348796b2b01813101078b451af692c6"
      } ],
      "effectiveDateTime": "2020-02-20",
      "valueCodeableConcept": {
        "extension": [ {
          "url": "https://www.medizininformatik-initiative.de/fhir/ext/modul-onko/StructureDefinition/mii-ex-onko-tnm-sn-suffix",
          "valueCodeableConcept": {
            "coding": [ {
              "system": "https://www.uicc.org/resources/tnm",
              "code": "sn"
            } ]
          }
        } ],
        "coding": [ {
          "system": "https://www.uicc.org/resources/tnm",
          "code": "1"
        } ]
      },
      "method": {
        "coding": [ {
          "system": "https://www.medizininformatik-initiative.de/fhir/ext/modul-onko/CodeSystem/mii-cs-onko-tnm-version",
          "code": "8"
        } ]
      }
    },
    "request": {
      "method": "PUT",
      "url": "Observation/a0fb9e9de52d60a7a92a2ba539782b57d61f89cd3bbf9404a618db240918dd31"
    }
  }, {
    "fullUrl": "Observation/e88907601c701dfaf1da094028fc9f6e3983f94040da61a1d453651115afa253",
    "resource": {
      "resourceType": "Observation",
      "id": "e88907601c701dfaf1da094028fc9f6e3983f94040da61a1d453651115afa253",
      "meta": {
        "profile": [ "https://www.medizininformatik-initiative.de/fhir/ext/modul-onko/StructureDefinition/mii-pr-onko-tnm-m-kategorie" ]
      },
      "identifier": [ {
        "system": "250_M",
        "value": "https://bzkf.github.io/obds-to-fhir/identifiers/tnm-m-kategorie-observation-id"
      } ],
      "status": "final",
      "code": {
        "extension": [ {
          "url": "https://www.medizininformatik-initiative.de/fhir/ext/modul-onko/StructureDefinition/mii-ex-onko-tnm-cp-praefix",
          "valueCodeableConcept": {
            "coding": [ {
              "system": "https://www.uicc.org/resources/tnm",
              "code": "c"
            } ]
          }
        } ],
        "coding": [ {
          "system": "http://snomed.info/sct",
          "code": "399387003",
          "display": "cM category (observable entity)"
        } ]
      },
      "subject": {
        "reference": "Patient/9142ee3ff7990f826ada966f03da267e0fe662f73858158f5e868b772cd68730"
      },
      "focus": [ {
        "reference": "Condition/257c056341e9015dfdd7d15cab0a7414b348796b2b01813101078b451af692c6"
      } ],
      "effectiveDateTime": "2020-02-20",
      "valueCodeableConcept": {
        "coding": [ {
          "system": "https://www.uicc.org/resources/tnm",
          "code": "0"
        } ]
      },
      "method": {
        "coding": [ {
          "system": "https://www.medizininformatik-initiative.de/fhir/ext/modul-onko/CodeSystem/mii-cs-onko-tnm-version",
          "code": "8"
        } ]
      }
    },
    "request": {
      "method": "PUT",
      "url": "Observation/e88907601c701dfaf1da094028fc9f6e3983f94040da61a1d453651115afa253"
    }
  }, {
    "fullUrl": "Observation/ee59de7eda57287c382442749ee168a45c3b987ab74eac014ec246f814429089",
    "resource": {
      "resourceType": "Observation",
      "id": "ee59de7eda57287c382442749ee168a45c3b987ab74eac014ec246f814429089",
      "meta": {
        "profile": [ "https://www.medizininformatik-initiative.de/fhir/ext/modul-onko/StructureDefinition/mii-pr-onko-tnm-l-kategorie" ]
      },
      "identifier": [ {
        "system": "250_L",
        "value": "https://bzkf.github.io/obds-to-fhir/identifiers/tnm-l-kategorie-observation-id"
      } ],
      "status": "final",
      "code": {
        "coding": [ {
          "system": "http://snomed.info/sct",
          "code": "395715009"
        } ]
      },
      "subject": {
        "reference": "Patient/9142ee3ff7990f826ada966f03da267e0fe662f73858158f5e868b772cd68730"
      },
      "focus": [ {
        "reference": "Condition/257c056341e9015dfdd7d15cab0a7414b348796b2b01813101078b451af692c6"
      } ],
      "effectiveDateTime": "2020-02-20",
      "valueCodeableConcept": {
        "coding": [ {
          "system": "https://www.uicc.org/resources/tnm",
          "code": "L0"
        } ]
      },
      "method": {
        "coding": [ {
          "system": "https://www.medizininformatik-initiative.de/fhir/ext/modul-onko/CodeSystem/mii-cs-onko-tnm-version",
          "code": "8"
        } ]
      }
    },
    "request": {
      "method": "PUT",
      "url": "Observation/ee59de7eda57287c382442749ee168a45c3b987ab74eac014ec246f814429089"
    }
  }, {
    "fullUrl": "Observation/23437e6eae13858600ee1297741312d27b7541db41d96ac0428f6ecbd563d4ff",
    "resource": {
      "resourceType": "Observation",
      "id": "23437e6eae13858600ee1297741312d27b7541db41d96ac0428f6ecbd563d4ff",
      "meta": {
        "profile": [ "\thttps://www.medizininformatik-initiative.de/fhir/ext/modul-onko/StructureDefinition/mii-pr-onko-tnm-pn-kategorie" ]
      },
      "identifier": [ {
        "system": "250_Pn",
        "value": "https://bzkf.github.io/obds-to-fhir/identifiers/tnm-pn-kategorie-observation-id"
      } ],
      "status": "final",
      "code": {
        "coding": [ {
          "system": "http://snomed.info/sct",
          "code": "371513001"
        } ]
      },
      "subject": {
        "reference": "Patient/9142ee3ff7990f826ada966f03da267e0fe662f73858158f5e868b772cd68730"
      },
      "focus": [ {
        "reference": "Condition/257c056341e9015dfdd7d15cab0a7414b348796b2b01813101078b451af692c6"
      } ],
      "effectiveDateTime": "2020-02-20",
      "valueCodeableConcept": {
        "coding": [ {
          "system": "https://www.uicc.org/resources/tnm",
          "code": "Pn0"
        } ]
      },
      "method": {
        "coding": [ {
          "system": "https://www.medizininformatik-initiative.de/fhir/ext/modul-onko/CodeSystem/mii-cs-onko-tnm-version",
          "code": "8"
        } ]
      }
    },
    "request": {
      "method": "PUT",
      "url": "Observation/23437e6eae13858600ee1297741312d27b7541db41d96ac0428f6ecbd563d4ff"
    }
  }, {
    "fullUrl": "Observation/3ebef0f31dbddef9cb6735e6e8747afbb7117f2df76958cd7fe9ae324f5933bf",
    "resource": {
      "resourceType": "Observation",
      "id": "3ebef0f31dbddef9cb6735e6e8747afbb7117f2df76958cd7fe9ae324f5933bf",
      "meta": {
        "profile": [ "https://www.medizininformatik-initiative.de/fhir/ext/modul-onko/StructureDefinition/mii-pr-onko-tnm-v-kategorie" ]
      },
      "identifier": [ {
        "system": "250_V",
        "value": "https://bzkf.github.io/obds-to-fhir/identifiers/tnm-v-kategorie-observation-id"
      } ],
      "status": "final",
      "code": {
        "coding": [ {
          "system": "http://snomed.info/sct",
          "code": "371493002"
        } ]
      },
      "subject": {
        "reference": "Patient/9142ee3ff7990f826ada966f03da267e0fe662f73858158f5e868b772cd68730"
      },
      "focus": [ {
        "reference": "Condition/257c056341e9015dfdd7d15cab0a7414b348796b2b01813101078b451af692c6"
      } ],
      "effectiveDateTime": "2020-02-20",
      "valueCodeableConcept": {
        "coding": [ {
          "system": "https://www.uicc.org/resources/tnm",
          "code": "V0"
        } ]
      },
      "method": {
        "coding": [ {
          "system": "https://www.medizininformatik-initiative.de/fhir/ext/modul-onko/CodeSystem/mii-cs-onko-tnm-version",
          "code": "8"
        } ]
      }
    },
    "request": {
      "method": "PUT",
      "url": "Observation/3ebef0f31dbddef9cb6735e6e8747afbb7117f2df76958cd7fe9ae324f5933bf"
    }
  }, {
    "fullUrl": "Observation/46b7dfb6d6c176cf6972d9c7d3464e7712415f72a06ae8adb5f771dc25ff76fc",
    "resource": {
      "resourceType": "Observation",
      "id": "46b7dfb6d6c176cf6972d9c7d3464e7712415f72a06ae8adb5f771dc25ff76fc",
      "meta": {
        "profile": [ "https://www.medizininformatik-initiative.de/fhir/ext/modul-onko/StructureDefinition/mii-pr-onko-tnm-klassifikation" ]
      },
      "identifier": [ {
        "system": "https://bzkf.github.io/obds-to-fhir/identifiers/tnm-grouping-observation-id",
        "value": "250"
      } ],
      "status": "final",
      "code": {
        "coding": [ {
          "system": "http://snomed.info/sct",
          "code": "399588009",
          "display": "TNM stage grouping"
        } ]
      },
      "subject": {
        "reference": "Patient/9142ee3ff7990f826ada966f03da267e0fe662f73858158f5e868b772cd68730"
      },
      "focus": [ {
        "reference": "Condition/257c056341e9015dfdd7d15cab0a7414b348796b2b01813101078b451af692c6"
      } ],
      "effectiveDateTime": "2020-02-20",
      "valueCodeableConcept": {
        "coding": [ {
          "system": "https://www.uicc.org/resources/tnm",
          "code": "IIB",
          "display": "Stadium IIB"
        } ]
      },
      "method": {
        "coding": [ {
          "system": "https://www.medizininformatik-initiative.de/fhir/ext/modul-onko/CodeSystem/mii-cs-onko-tnm-version",
          "code": "8"
        } ]
      },
      "hasMember": [ {
        "reference": "Observation/ccc85c14b611e36a91c66b2db4f522d67f7befbb7bbc999a32ac1b86cc7f3a4f"
      }, {
        "reference": "Observation/a0fb9e9de52d60a7a92a2ba539782b57d61f89cd3bbf9404a618db240918dd31"
      }, {
        "reference": "Observation/e88907601c701dfaf1da094028fc9f6e3983f94040da61a1d453651115afa253"
      }, {
        "reference": "Observation/ee59de7eda57287c382442749ee168a45c3b987ab74eac014ec246f814429089"
      }, {
        "reference": "Observation/23437e6eae13858600ee1297741312d27b7541db41d96ac0428f6ecbd563d4ff"
      }, {
        "reference": "Observation/3ebef0f31dbddef9cb6735e6e8747afbb7117f2df76958cd7fe9ae324f5933bf"
      } ]
    },
    "request": {
      "method": "PUT",
      "url": "Observation/46b7dfb6d6c176cf6972d9c7d3464e7712415f72a06ae8adb5f771dc25ff76fc"
    }
  }, {
    "fullUrl": "CarePlan/5b2895fc6d3bedd34b9a0a0c9eb1f38c1e67b20ef505c412b8181d4c2ea02ee2",
    "resource": {
      "resourceType": "CarePlan",
      "id": "5b2895fc6d3bedd34b9a0a0c9eb1f38c1e67b20ef505c412b8181d4c2ea02ee2",
      "meta": {
        "profile": [ "https://www.medizininformatik-initiative.de/fhir/ext/modul-onko/StructureDefinition/mii-pr-onko-tumorkonferenz" ]
      },
      "identifier": [ {
        "system": "https://bzkf.github.io/obds-to-fhir/identifiers/tumorkonferenz-id",
        "value": "Tumorkonferenz_108"
      } ],
      "status": "active",
      "intent": "plan",
      "category": [ {
        "coding": [ {
          "system": "https://www.medizininformatik-initiative.de/fhir/ext/modul-onko/CodeSystem/mii-cs-onko-therapieplanung-typ",
          "code": "praeth"
        } ]
      } ],
      "subject": {
        "reference": "Patient/9142ee3ff7990f826ada966f03da267e0fe662f73858158f5e868b772cd68730"
      },
      "created": "2021-09-21",
      "addresses": [ {
        "reference": "Condition/257c056341e9015dfdd7d15cab0a7414b348796b2b01813101078b451af692c6"
      } ],
      "activity": [ {
        "detail": {
          "code": {
            "coding": [ {
              "system": "https://www.medizininformatik-initiative.de/fhir/ext/modul-onko/CodeSystem/mii-cs-onko-therapie-typ",
              "code": "CH"
            } ]
          },
          "status": "cancelled",
          "statusReason": {
            "coding": [ {
              "system": "https://www.medizininformatik-initiative.de/fhir/ext/modul-onko/CodeSystem/mii-cs-onko-therapieabweichung",
              "code": "J"
            } ]
          }
        }
      } ]
    },
    "request": {
      "method": "PUT",
      "url": "CarePlan/5b2895fc6d3bedd34b9a0a0c9eb1f38c1e67b20ef505c412b8181d4c2ea02ee2"
    }
  }, {
    "fullUrl": "Procedure/7235df9cd9b20c4e863029e1bfbda394ef3941e2086340b9f19e0ff64ef618ec",
    "resource": {
      "resourceType": "Procedure",
      "id": "7235df9cd9b20c4e863029e1bfbda394ef3941e2086340b9f19e0ff64ef618ec",
      "meta": {
        "profile": [ "https://www.medizininformatik-initiative.de/fhir/ext/modul-onko/StructureDefinition/mii-pr-onko-strahlentherapie" ]
      },
      "extension": [ {
        "url": "https://www.medizininformatik-initiative.de/fhir/ext/modul-onko/StructureDefinition/mii-ex-onko-strahlentherapie-intention",
        "valueCodeableConcept": {
          "coding": [ {
            "system": "https://www.medizininformatik-initiative.de/fhir/ext/modul-onko/CodeSystem/mii-cs-onko-intention",
            "code": "K"
          } ]
        }
      }, {
        "url": "https://www.medizininformatik-initiative.de/fhir/ext/modul-onko/StructureDefinition/mii-ex-onko-strahlentherapie-stellungzurop",
        "valueCodeableConcept": {
          "coding": [ {
            "system": "https://www.medizininformatik-initiative.de/fhir/ext/modul-onko/CodeSystem/mii-cs-onko-therapie-stellungzurop",
            "code": "A"
          } ]
        }
      }, {
        "url": "https://www.medizininformatik-initiative.de/fhir/ext/modul-onko/StructureDefinition/mii-ex-onko-strahlentherapie-bestrahlung",
        "extension": [ {
          "url": "Applikationsart",
          "valueCodeableConcept": {
            "coding": [ {
              "system": "https://www.medizininformatik-initiative.de/fhir/ext/modul-onko/CodeSystem/mii-cs-onko-strahlentherapie-applikationsart",
              "code": "PRCN"
            } ]
          }
        }, {
          "url": "Zielgebiet",
          "valueCodeableConcept": {
            "coding": [ {
              "system": "https://www.medizininformatik-initiative.de/fhir/ext/modul-onko/CodeSystem/mii-cs-onko-strahlentherapie-zielgebiet",
              "code": "3.1.+"
            } ]
          }
        }, {
          "url": "Zielgebiet_Lateralitaet",
          "valueCodeableConcept": {
            "coding": [ {
              "system": "https://www.medizininformatik-initiative.de/fhir/ext/modul-onko/CodeSystem/mii-cs-onko-seitenlokalisation",
              "code": "R"
            } ]
          }
        }, {
          "url": "Gesamtdosis",
          "valueQuantity": {
            "value": 58.8,
            "unit": "Gy",
            "system": "http://unitsofmeasure.org",
            "code": "Gy"
          }
        }, {
          "url": "Einzeldosis",
          "valueQuantity": {
            "value": 1.8,
            "unit": "Gy",
            "system": "http://unitsofmeasure.org",
            "code": "Gy"
          }
        }, {
          "url": "Boost",
          "valueCodeableConcept": {
            "coding": [ {
              "system": "https://www.medizininformatik-initiative.de/fhir/ext/modul-onko/CodeSystem/mii-cs-onko-strahlentherapie-boost",
              "code": "SIB"
            } ]
          }
        } ]
      } ],
      "identifier": [ {
        "system": "https://bzkf.github.io/obds-to-fhir/identifiers/strahlentherapie-procedure-id",
        "value": "60_1_ST_1"
      } ],
      "status": "completed",
      "category": {
        "coding": [ {
          "system": "http://snomed.info/sct",
          "code": "1287742003",
          "display": "Radiotherapy (procedure)"
        } ]
      },
      "code": {
        "coding": [ {
          "system": "http://fhir.de/CodeSystem/bfarm/ops",
          "version": "2025",
          "code": "8-52",
          "display": "Strahlentherapie"
        } ]
      },
      "subject": {
        "reference": "Patient/9142ee3ff7990f826ada966f03da267e0fe662f73858158f5e868b772cd68730"
      },
      "performedPeriod": {
        "start": "2020-06-12",
        "end": "2020-07-15"
      },
      "reasonReference": [ {
        "reference": "Condition/257c056341e9015dfdd7d15cab0a7414b348796b2b01813101078b451af692c6"
      } ],
      "outcome": {
        "coding": [ {
          "system": "https://www.medizininformatik-initiative.de/fhir/ext/modul-onko/CodeSystem/mii-cs-onko-therapie-ende-grund",
          "code": "E"
        } ]
      }
    },
    "request": {
      "method": "PUT",
      "url": "Procedure/7235df9cd9b20c4e863029e1bfbda394ef3941e2086340b9f19e0ff64ef618ec"
    }
  }, {
    "fullUrl": "Procedure/de875a1e1285ad0484739a80e4d58a12a2c1483dcc097458852a16ce1b264736",
    "resource": {
      "resourceType": "Procedure",
      "id": "de875a1e1285ad0484739a80e4d58a12a2c1483dcc097458852a16ce1b264736",
      "meta": {
        "profile": [ "https://www.medizininformatik-initiative.de/fhir/ext/modul-onko/StructureDefinition/mii-pr-onko-systemische-therapie" ]
      },
      "extension": [ {
        "url": "https://www.medizininformatik-initiative.de/fhir/ext/modul-onko/StructureDefinition/mii-ex-onko-systemische-therapie-intention",
        "valueCodeableConcept": {
          "coding": [ {
            "system": "https://www.medizininformatik-initiative.de/fhir/ext/modul-onko/CodeSystem/mii-cs-onko-intention",
            "code": "K"
          } ]
        }
      }, {
        "url": "https://www.medizininformatik-initiative.de/fhir/ext/modul-onko/StructureDefinition/mii-ex-onko-strahlentherapie-stellungzurop",
        "valueCodeableConcept": {
          "coding": [ {
            "system": "https://www.medizininformatik-initiative.de/fhir/ext/modul-onko/CodeSystem/mii-cs-onko-therapie-stellungzurop",
            "code": "A"
          } ]
        }
      } ],
      "identifier": [ {
        "system": "https://bzkf.github.io/obds-to-fhir/identifiers/systemische-therapie-procedure-id",
        "value": "60_1_IN_1"
      } ],
      "status": "in-progress",
      "category": {
        "coding": [ {
          "system": "http://snomed.info/sct",
          "code": "18629005"
        } ]
      },
      "code": {
        "coding": [ {
          "system": "http://fhir.de/CodeSystem/bfarm/ops",
          "code": "8-54"
        }, {
          "system": "https://www.medizininformatik-initiative.de/fhir/ext/modul-onko/CodeSystem/mii-cs-onko-therapie-typ",
          "code": "CH"
        } ]
      },
      "subject": {
        "reference": "Patient/9142ee3ff7990f826ada966f03da267e0fe662f73858158f5e868b772cd68730"
      },
      "performedPeriod": {
        "start": "2020-04-03"
      }
    },
    "request": {
      "method": "PUT",
      "url": "Procedure/de875a1e1285ad0484739a80e4d58a12a2c1483dcc097458852a16ce1b264736"
    }
  }, {
    "fullUrl": "MedicationStatement/7f30e8f22be34d7b884b477ba95c11b57f5af9076159acb68555f5bed4a9b755",
    "resource": {
      "resourceType": "MedicationStatement",
      "id": "7f30e8f22be34d7b884b477ba95c11b57f5af9076159acb68555f5bed4a9b755",
      "meta": {
        "profile": [ "https://www.medizininformatik-initiative.de/fhir/core/modul-medikation/StructureDefinition/MedicationStatement" ]
      },
      "identifier": [ {
        "system": "https://bzkf.github.io/obds-to-fhir/identifiers/systemische-therapie-medication-statement-id",
        "value": "60_1_IN_1_Cisplatin_bb7f"
      } ],
      "partOf": [ {
        "reference": "Procedure/de875a1e1285ad0484739a80e4d58a12a2c1483dcc097458852a16ce1b264736"
      } ],
      "status": "active",
      "medicationCodeableConcept": {
        "text": "Cisplatin"
      },
      "subject": {
        "reference": "Patient/9142ee3ff7990f826ada966f03da267e0fe662f73858158f5e868b772cd68730"
      },
      "effectivePeriod": {
        "start": "2020-04-03"
      }
    },
    "request": {
      "method": "PUT",
      "url": "MedicationStatement/7f30e8f22be34d7b884b477ba95c11b57f5af9076159acb68555f5bed4a9b755"
    }
  }, {
    "fullUrl": "Procedure/f52e718bb2946bce3b4886e0dc8139d24bcaafad2b502a8e3c2a76022f117d8d",
    "resource": {
      "resourceType": "Procedure",
      "id": "f52e718bb2946bce3b4886e0dc8139d24bcaafad2b502a8e3c2a76022f117d8d",
      "meta": {
        "profile": [ "https://www.medizininformatik-initiative.de/fhir/ext/modul-onko/StructureDefinition/mii-pr-onko-systemische-therapie" ]
      },
      "extension": [ {
        "url": "https://www.medizininformatik-initiative.de/fhir/ext/modul-onko/StructureDefinition/mii-ex-onko-systemische-therapie-intention",
        "valueCodeableConcept": {
          "coding": [ {
            "system": "https://www.medizininformatik-initiative.de/fhir/ext/modul-onko/CodeSystem/mii-cs-onko-intention",
            "code": "K"
          } ]
        }
      }, {
        "url": "https://www.medizininformatik-initiative.de/fhir/ext/modul-onko/StructureDefinition/mii-ex-onko-strahlentherapie-stellungzurop",
        "valueCodeableConcept": {
          "coding": [ {
            "system": "https://www.medizininformatik-initiative.de/fhir/ext/modul-onko/CodeSystem/mii-cs-onko-therapie-stellungzurop",
            "code": "A"
          } ]
        }
      } ],
      "identifier": [ {
        "system": "https://bzkf.github.io/obds-to-fhir/identifiers/systemische-therapie-procedure-id",
        "value": "60_1_IN_2"
      } ],
      "status": "in-progress",
      "category": {
        "coding": [ {
          "system": "http://snomed.info/sct",
          "code": "18629005"
        } ]
      },
      "code": {
        "coding": [ {
          "system": "http://fhir.de/CodeSystem/bfarm/ops",
          "code": "6-00"
        }, {
          "system": "https://www.medizininformatik-initiative.de/fhir/ext/modul-onko/CodeSystem/mii-cs-onko-therapie-typ",
          "code": "HO"
        } ]
      },
      "subject": {
        "reference": "Patient/9142ee3ff7990f826ada966f03da267e0fe662f73858158f5e868b772cd68730"
      },
      "performedPeriod": {
        "start": "2020-08-02"
      }
    },
    "request": {
      "method": "PUT",
      "url": "Procedure/f52e718bb2946bce3b4886e0dc8139d24bcaafad2b502a8e3c2a76022f117d8d"
    }
  }, {
    "fullUrl": "CarePlan/5635ea2fa471aec16706e24b9d25d28a012359fec2f4235d3534cf8580e9fb28",
    "resource": {
      "resourceType": "CarePlan",
      "id": "5635ea2fa471aec16706e24b9d25d28a012359fec2f4235d3534cf8580e9fb28",
      "meta": {
        "profile": [ "https://www.medizininformatik-initiative.de/fhir/ext/modul-onko/StructureDefinition/mii-pr-onko-tumorkonferenz" ]
      },
      "identifier": [ {
        "system": "https://bzkf.github.io/obds-to-fhir/identifiers/tumorkonferenz-id",
        "value": "Tumorkonferenz_109"
      } ],
      "status": "completed",
      "intent": "plan",
      "category": [ {
        "coding": [ {
          "system": "https://www.medizininformatik-initiative.de/fhir/ext/modul-onko/CodeSystem/mii-cs-onko-therapieplanung-typ",
          "code": "postop"
        } ]
      } ],
      "subject": {
        "reference": "Patient/9142ee3ff7990f826ada966f03da267e0fe662f73858158f5e868b772cd68730"
      },
      "created": "2020-03-10",
      "addresses": [ {
        "reference": "Condition/257c056341e9015dfdd7d15cab0a7414b348796b2b01813101078b451af692c6"
      } ],
      "activity": [ {
        "detail": {
          "code": {
            "coding": [ {
              "system": "https://www.medizininformatik-initiative.de/fhir/ext/modul-onko/CodeSystem/mii-cs-onko-therapie-typ",
              "code": "CH"
            } ]
          },
          "status": "completed",
          "statusReason": {
            "coding": [ {
              "system": "https://www.medizininformatik-initiative.de/fhir/ext/modul-onko/CodeSystem/mii-cs-onko-therapieabweichung",
              "code": "N"
            } ]
          }
        }
      }, {
        "detail": {
          "code": {
            "coding": [ {
              "system": "https://www.medizininformatik-initiative.de/fhir/ext/modul-onko/CodeSystem/mii-cs-onko-therapie-typ",
              "code": "ST"
            } ]
          },
          "status": "completed",
          "statusReason": {
            "coding": [ {
              "system": "https://www.medizininformatik-initiative.de/fhir/ext/modul-onko/CodeSystem/mii-cs-onko-therapieabweichung",
              "code": "N"
            } ]
          }
        }
      }, {
        "detail": {
          "code": {
            "coding": [ {
              "system": "https://www.medizininformatik-initiative.de/fhir/ext/modul-onko/CodeSystem/mii-cs-onko-therapie-typ",
              "code": "HO"
            } ]
          },
          "status": "completed",
          "statusReason": {
            "coding": [ {
              "system": "https://www.medizininformatik-initiative.de/fhir/ext/modul-onko/CodeSystem/mii-cs-onko-therapieabweichung",
              "code": "N"
            } ]
          }
        }
      } ]
    },
    "request": {
      "method": "PUT",
      "url": "CarePlan/5635ea2fa471aec16706e24b9d25d28a012359fec2f4235d3534cf8580e9fb28"
    }
  } ]
}