{
  "resourceType": "Bundle",
  "id": "a02e16474896f1d528cac71f2c9b4c45ac3c9028e3a53fb414a1f7882991ee07",
  "type": "transaction",
  "entry": [ {
    "fullUrl": "Patient/a02e16474896f1d528cac71f2c9b4c45ac3c9028e3a53fb414a1f7882991ee07",
    "resource": {
      "resourceType": "Patient",
      "id": "a02e16474896f1d528cac71f2c9b4c45ac3c9028e3a53fb414a1f7882991ee07",
      "meta": {
        "profile": [ "https://www.medizininformatik-initiative.de/fhir/core/modul-person/StructureDefinition/PatientPseudonymisiert" ]
      },
      "identifier": [ {
        "type": {
          "coding": [ {
            "system": "http://terminology.hl7.org/CodeSystem/v2-0203",
            "code": "MR",
            "display": "Medical record number"
          }, {
            "system": "http://terminology.hl7.org/CodeSystem/v3-ObservationValue",
            "code": "PSEUDED",
            "display": "pseudonymized"
          } ]
        },
        "system": "https://bzkf.github.io/obds-to-fhir/identifiers/patient-id",
        "value": "10"
      } ],
      "gender": "female",
      "birthDate": "1950-05-01",
      "deceasedDateTime": "2022-08-01",
      "address": [ {
        "type": "both",
        "postalCode": "12345",
        "country": "DE"
      } ]
    },
    "request": {
      "method": "PUT",
      "url": "Patient/a02e16474896f1d528cac71f2c9b4c45ac3c9028e3a53fb414a1f7882991ee07"
    }
  }, {
    "fullUrl": "Condition/9896edd80f6833ea17fbb2c5ad5ca42caa1d02f41baea875f4a390be3b372356",
    "resource": {
      "resourceType": "Condition",
      "id": "9896edd80f6833ea17fbb2c5ad5ca42caa1d02f41baea875f4a390be3b372356",
      "meta": {
        "profile": [ "https://www.medizininformatik-initiative.de/fhir/ext/modul-onko/StructureDefinition/mii-pr-onko-diagnose-primaertumor" ]
      },
      "extension": [ {
        "url": "https://www.medizininformatik-initiative.de/fhir/ext/modul-onko/StructureDefinition/mii-ex-onko-histology-morphology-behavior-icdo3",
        "valueCodeableConcept": {
          "coding": [ {
            "system": "http://terminology.hl7.org/CodeSystem/icd-o-3",
            "version": "33",
            "code": "8010/3"
          } ]
        }
      }, {
        "url": "http://hl7.org/fhir/StructureDefinition/condition-assertedDate",
        "valueDateTime": "2020-03-01"
      } ],
      "identifier": [ {
        "system": "https://bzkf.github.io/obds-to-fhir/identifiers/primaerdiagnose-id",
        "value": "101"
      } ],
      "verificationStatus": {
        "coding": [ {
          "system": "http://terminology.hl7.org/CodeSystem/condition-ver-status",
          "code": "confirmed"
        }, {
          "system": "https://www.medizininformatik-initiative.de/fhir/ext/modul-onko/CodeSystem/mii-cs-onko-primaertumor-diagnosesicherung",
          "code": "7"
        } ]
      },
      "code": {
        "coding": [ {
          "system": "http://fhir.de/CodeSystem/bfarm/icd-10-gm",
          "version": "2020",
          "code": "C50.9"
        } ]
      },
      "bodySite": [ {
        "coding": [ {
          "system": "http://terminology.hl7.org/CodeSystem/icd-o-3",
          "version": "33",
          "code": "C50.9"
        } ]
      }, {
        "coding": [ {
          "system": "https://www.medizininformatik-initiative.de/fhir/ext/modul-onko/CodeSystem/mii-cs-onko-seitenlokalisation",
          "code": "R"
        } ]
      } ],
      "subject": {
        "reference": "Patient/a02e16474896f1d528cac71f2c9b4c45ac3c9028e3a53fb414a1f7882991ee07"
      },
      "recordedDate": "2024-09-19"
    },
    "request": {
      "method": "PUT",
      "url": "Condition/9896edd80f6833ea17fbb2c5ad5ca42caa1d02f41baea875f4a390be3b372356"
    }
  }, {
    "fullUrl": "Observation/6ff37297dfe99bf538549b388e8a9dad85756899519ef6e8e1775da5273bac8d",
    "resource": {
      "resourceType": "Observation",
      "id": "6ff37297dfe99bf538549b388e8a9dad85756899519ef6e8e1775da5273bac8d",
      "meta": {
        "profile": [ "https://www.medizininformatik-initiative.de/fhir/ext/modul-onko/StructureDefinition/mii-pr-onko-allgemeiner-leistungszustand-ecog" ]
      },
      "identifier": [ {
        "system": "https://bzkf.github.io/obds-to-fhir/identifiers/allgemeiner-leistungszustand-ecog-id",
        "value": "ECOG-10_1_DI_1"
      } ],
      "status": "final",
      "code": {
        "coding": [ {
          "system": "http://snomed.info/sct",
          "code": "423740007"
        } ]
      },
      "subject": {
        "reference": "Patient/a02e16474896f1d528cac71f2c9b4c45ac3c9028e3a53fb414a1f7882991ee07"
      },
      "focus": [ {
        "reference": "Condition/9896edd80f6833ea17fbb2c5ad5ca42caa1d02f41baea875f4a390be3b372356"
      } ],
      "effectiveDateTime": "2020-03-01",
      "valueCodeableConcept": {
        "coding": [ {
          "system": "https://www.medizininformatik-initiative.de/fhir/ext/modul-onko/CodeSystem/mii-cs-onko-allgemeiner-leistungszustand-ecog",
          "code": "1",
          "display": "Einschränkung bei körperlicher Anstrengung, aber gehfähig; leichte körperliche Arbeit bzw. Arbeit im Sitzen (z. B. leichte Hausarbeit oder Büroarbeit) möglich (70 - 80 % nach Karnofsky)"
        } ]
      }
    },
    "request": {
      "method": "PUT",
      "url": "Observation/6ff37297dfe99bf538549b388e8a9dad85756899519ef6e8e1775da5273bac8d"
    }
  }, {
    "fullUrl": "Observation/ce9ac4ea209e8287513499093af316c9a589459a575f7fa6c4499530ceaed1da",
    "resource": {
      "resourceType": "Observation",
      "id": "ce9ac4ea209e8287513499093af316c9a589459a575f7fa6c4499530ceaed1da",
      "meta": {
        "profile": [ "https://www.medizininformatik-initiative.de/fhir/ext/modul-onko/StructureDefinition/mii-pr-onko-fernmetastasen" ]
      },
      "identifier": [ {
        "system": "https://bzkf.github.io/obds-to-fhir/identifiers/fernmetastasen-id",
        "value": "10_1_DI_1-Diagnose-0"
      } ],
      "status": "final",
      "code": {
        "coding": [ {
          "system": "http://snomed.info/sct",
          "code": "385421009"
        } ]
      },
      "subject": {
        "reference": "Patient/a02e16474896f1d528cac71f2c9b4c45ac3c9028e3a53fb414a1f7882991ee07"
      },
      "focus": [ {
        "reference": "Condition/9896edd80f6833ea17fbb2c5ad5ca42caa1d02f41baea875f4a390be3b372356"
      } ],
      "effectiveDateTime": "2020-03-01",
      "valueCodeableConcept": {
        "coding": [ {
          "system": "https://www.medizininformatik-initiative.de/fhir/ext/modul-onko/CodeSystem/mii-cs-onko-fernmetastasen",
          "code": "OSS"
        } ]
      }
    },
    "request": {
      "method": "PUT",
      "url": "Observation/ce9ac4ea209e8287513499093af316c9a589459a575f7fa6c4499530ceaed1da"
    }
  }, {
    "fullUrl": "Specimen/fd0a202eb1bf417fe7e7e5b64f4ce312dad44cfd402d919c8d8861031e54b2b9",
    "resource": {
      "resourceType": "Specimen",
      "id": "fd0a202eb1bf417fe7e7e5b64f4ce312dad44cfd402d919c8d8861031e54b2b9",
      "meta": {
        "profile": [ "https://www.medizininformatik-initiative.de/fhir/ext/modul-onko/StructureDefinition/mii-pr-onko-specimen" ]
      },
      "identifier": [ {
        "system": "https://bzkf.github.io/obds-to-fhir/identifiers/specimen-id",
        "value": "521"
      } ],
      "accessionIdentifier": {
        "value": "X/123456/1"
      },
      "subject": {
        "reference": "Patient/a02e16474896f1d528cac71f2c9b4c45ac3c9028e3a53fb414a1f7882991ee07"
      },
      "collection": {
        "collectedDateTime": "2020-03-05"
      }
    },
    "request": {
      "method": "PUT",
      "url": "Specimen/fd0a202eb1bf417fe7e7e5b64f4ce312dad44cfd402d919c8d8861031e54b2b9"
    }
  }, {
    "fullUrl": "Observation/bd42baff334aebe29568e96cdc5a2372bef4677aa465bf1262e7100594019dbb",
    "resource": {
      "resourceType": "Observation",
      "id": "bd42baff334aebe29568e96cdc5a2372bef4677aa465bf1262e7100594019dbb",
      "meta": {
        "profile": [ "https://www.medizininformatik-initiative.de/fhir/ext/modul-onko/StructureDefinition/mii-pr-onko-histologie-icdo3" ]
      },
      "identifier": [ {
        "system": "https://bzkf.github.io/obds-to-fhir/identifiers/observation-histologie-id",
        "value": "521_ICDO3_8010/3"
      } ],
      "status": "final",
      "code": {
        "coding": [ {
          "system": "http://loinc.org",
          "code": "59847-4"
        } ]
      },
      "subject": {
        "reference": "Patient/a02e16474896f1d528cac71f2c9b4c45ac3c9028e3a53fb414a1f7882991ee07"
      },
      "focus": [ {
        "reference": "Condition/9896edd80f6833ea17fbb2c5ad5ca42caa1d02f41baea875f4a390be3b372356"
      } ],
      "effectiveDateTime": "2020-03-05",
      "valueCodeableConcept": {
        "coding": [ {
          "system": "http://terminology.hl7.org/CodeSystem/icd-o-3",
          "version": "33",
          "code": "8010/3"
        } ],
        "text": "Karzinom o.n.A."
      },
      "specimen": {
        "reference": "Specimen/fd0a202eb1bf417fe7e7e5b64f4ce312dad44cfd402d919c8d8861031e54b2b9"
      }
    },
    "request": {
      "method": "PUT",
      "url": "Observation/bd42baff334aebe29568e96cdc5a2372bef4677aa465bf1262e7100594019dbb"
    }
  }, {
    "fullUrl": "Observation/360801228505b1bb4346b56eefd4e20f1ea17be7125d34f55fc6912a6d708d3a",
    "resource": {
      "resourceType": "Observation",
      "id": "360801228505b1bb4346b56eefd4e20f1ea17be7125d34f55fc6912a6d708d3a",
      "meta": {
        "profile": [ "https://www.medizininformatik-initiative.de/fhir/ext/modul-onko/StructureDefinition/mii-pr-onko-grading" ]
      },
      "identifier": [ {
        "system": "https://bzkf.github.io/obds-to-fhir/identifiers/observation-histologie-id",
        "value": "521_Grading"
      } ],
      "status": "final",
      "category": [ {
        "coding": [ {
          "system": "http://terminology.hl7.org/CodeSystem/observation-category",
          "code": "laboratory"
        } ]
      } ],
      "code": {
        "coding": [ {
          "system": "http://loinc.org",
          "code": "33732-9"
        }, {
          "system": "http://snomed.info/sct",
          "code": "371469007"
        } ]
      },
      "subject": {
        "reference": "Patient/a02e16474896f1d528cac71f2c9b4c45ac3c9028e3a53fb414a1f7882991ee07"
      },
      "focus": [ {
        "reference": "Condition/9896edd80f6833ea17fbb2c5ad5ca42caa1d02f41baea875f4a390be3b372356"
      } ],
      "effectiveDateTime": "2020-03-05",
      "valueCodeableConcept": {
        "coding": [ {
          "system": "https://www.medizininformatik-initiative.de/fhir/ext/modul-onko/CodeSystem/mii-cs-onko-grading",
          "code": "2"
        } ]
      },
      "specimen": {
        "reference": "Specimen/fd0a202eb1bf417fe7e7e5b64f4ce312dad44cfd402d919c8d8861031e54b2b9"
      }
    },
    "request": {
      "method": "PUT",
      "url": "Observation/360801228505b1bb4346b56eefd4e20f1ea17be7125d34f55fc6912a6d708d3a"
    }
  }, {
    "fullUrl": "Observation/db60ab4fce9b47c042d17c13ef46cce8a02d241dd178f5bb8ea74c76d825f7c8",
    "resource": {
      "resourceType": "Observation",
      "id": "db60ab4fce9b47c042d17c13ef46cce8a02d241dd178f5bb8ea74c76d825f7c8",
      "meta": {
        "profile": [ "https://www.medizininformatik-initiative.de/fhir/ext/modul-onko/StructureDefinition/mii-pr-onko-anzahl-befallene-lymphknoten" ]
      },
      "identifier": [ {
        "system": "https://bzkf.github.io/obds-to-fhir/identifiers/observation-histologie-id",
        "value": "521_befallen"
      } ],
      "status": "final",
      "category": [ {
        "coding": [ {
          "system": "http://terminology.hl7.org/CodeSystem/observation-category",
          "code": "laboratory"
        } ]
      } ],
      "code": {
        "coding": [ {
          "system": "http://loinc.org",
          "code": "21893-3"
        }, {
          "system": "http://snomed.info/sct",
          "code": "443527007"
        } ]
      },
      "subject": {
        "reference": "Patient/a02e16474896f1d528cac71f2c9b4c45ac3c9028e3a53fb414a1f7882991ee07"
      },
      "focus": [ {
        "reference": "Condition/9896edd80f6833ea17fbb2c5ad5ca42caa1d02f41baea875f4a390be3b372356"
      } ],
      "effectiveDateTime": "2020-03-05",
      "valueQuantity": {
        "value": 2,
        "unit": "#",
        "system": "http://unitsofmeasure.org",
        "code": "1"
      },
      "specimen": {
        "reference": "Specimen/fd0a202eb1bf417fe7e7e5b64f4ce312dad44cfd402d919c8d8861031e54b2b9"
      }
    },
    "request": {
      "method": "PUT",
      "url": "Observation/db60ab4fce9b47c042d17c13ef46cce8a02d241dd178f5bb8ea74c76d825f7c8"
    }
  }, {
    "fullUrl": "Observation/befdd6af2d29056dcf38e4c734a866f78c1edbb16c861cdc11e1cd2b4922496d",
    "resource": {
      "resourceType": "Observation",
      "id": "befdd6af2d29056dcf38e4c734a866f78c1edbb16c861cdc11e1cd2b4922496d",
      "meta": {
        "profile": [ "https://www.medizininformatik-initiative.de/fhir/ext/modul-onko/StructureDefinition/mii-pr-onko-anzahl-untersuchte-lymphknoten" ]
      },
      "identifier": [ {
        "system": "https://bzkf.github.io/obds-to-fhir/identifiers/observation-histologie-id",
        "value": "521_untersucht"
      } ],
      "status": "final",
      "category": [ {
        "coding": [ {
          "system": "http://terminology.hl7.org/CodeSystem/observation-category",
          "code": "laboratory"
        } ]
      } ],
      "code": {
        "coding": [ {
          "system": "http://loinc.org",
          "code": "21894-1"
        }, {
          "system": "http://snomed.info/sct",
          "code": "444025001"
        } ]
      },
      "subject": {
        "reference": "Patient/a02e16474896f1d528cac71f2c9b4c45ac3c9028e3a53fb414a1f7882991ee07"
      },
      "focus": [ {
        "reference": "Condition/9896edd80f6833ea17fbb2c5ad5ca42caa1d02f41baea875f4a390be3b372356"
      } ],
      "effectiveDateTime": "2020-03-05",
      "valueQuantity": {
        "value": 10,
        "unit": "#",
        "system": "http://unitsofmeasure.org",
        "code": "1"
      },
      "specimen": {
        "reference": "Specimen/fd0a202eb1bf417fe7e7e5b64f4ce312dad44cfd402d919c8d8861031e54b2b9"
      }
    },
    "request": {
      "method": "PUT",
      "url": "Observation/befdd6af2d29056dcf38e4c734a866f78c1edbb16c861cdc11e1cd2b4922496d"
    }
  }, {
    "fullUrl": "Observation/ad9694a6347a1c7dbd25b0e66ebb11a4ea797763fe8642e24b0817a292d201ae",
    "resource": {
      "resourceType": "Observation",
      "id": "ad9694a6347a1c7dbd25b0e66ebb11a4ea797763fe8642e24b0817a292d201ae",
      "meta": {
        "profile": [ "https://www.medizininformatik-initiative.de/fhir/ext/modul-onko/StructureDefinition/mii-pr-onko-anzahl-befallene-sentinel-lymphknoten" ]
      },
      "identifier": [ {
        "system": "https://bzkf.github.io/obds-to-fhir/identifiers/observation-histologie-id",
        "value": "521_befallen_sentinel"
      } ],
      "status": "final",
      "category": [ {
        "coding": [ {
          "system": "http://terminology.hl7.org/CodeSystem/observation-category",
          "code": "laboratory"
        } ]
      } ],
      "code": {
        "coding": [ {
          "system": "http://loinc.org",
          "code": "92832-5"
        }, {
          "system": "http://snomed.info/sct",
          "code": "1264491009"
        } ]
      },
      "subject": {
        "reference": "Patient/a02e16474896f1d528cac71f2c9b4c45ac3c9028e3a53fb414a1f7882991ee07"
      },
      "focus": [ {
        "reference": "Condition/9896edd80f6833ea17fbb2c5ad5ca42caa1d02f41baea875f4a390be3b372356"
      } ],
      "effectiveDateTime": "2020-03-05",
      "valueQuantity": {
        "value": 1,
        "unit": "#",
        "system": "http://unitsofmeasure.org",
        "code": "1"
      },
      "specimen": {
        "reference": "Specimen/fd0a202eb1bf417fe7e7e5b64f4ce312dad44cfd402d919c8d8861031e54b2b9"
      }
    },
    "request": {
      "method": "PUT",
      "url": "Observation/ad9694a6347a1c7dbd25b0e66ebb11a4ea797763fe8642e24b0817a292d201ae"
    }
  }, {
    "fullUrl": "Observation/fbe91a7f12faf6160fd93ad153640df603598f4d10e798e9620415a7ed84785e",
    "resource": {
      "resourceType": "Observation",
      "id": "fbe91a7f12faf6160fd93ad153640df603598f4d10e798e9620415a7ed84785e",
      "meta": {
        "profile": [ "https://www.medizininformatik-initiative.de/fhir/ext/modul-onko/StructureDefinition/mii-pr-onko-anzahl-untersuchte-sentinel-lymphknoten" ]
      },
      "identifier": [ {
        "system": "https://bzkf.github.io/obds-to-fhir/identifiers/observation-histologie-id",
        "value": "521_untersucht_sentinel"
      } ],
      "status": "final",
      "category": [ {
        "coding": [ {
          "system": "http://terminology.hl7.org/CodeSystem/observation-category",
          "code": "laboratory"
        } ]
      } ],
      "code": {
        "coding": [ {
          "system": "http://loinc.org",
          "code": "85347-3"
        }, {
          "system": "http://snomed.info/sct",
          "code": "444411008"
        } ]
      },
      "subject": {
        "reference": "Patient/a02e16474896f1d528cac71f2c9b4c45ac3c9028e3a53fb414a1f7882991ee07"
      },
      "focus": [ {
        "reference": "Condition/9896edd80f6833ea17fbb2c5ad5ca42caa1d02f41baea875f4a390be3b372356"
      } ],
      "effectiveDateTime": "2020-03-05",
      "valueQuantity": {
        "value": 2,
        "unit": "#",
        "system": "http://unitsofmeasure.org",
        "code": "1"
      },
      "specimen": {
        "reference": "Specimen/fd0a202eb1bf417fe7e7e5b64f4ce312dad44cfd402d919c8d8861031e54b2b9"
      }
    },
    "request": {
      "method": "PUT",
      "url": "Observation/fbe91a7f12faf6160fd93ad153640df603598f4d10e798e9620415a7ed84785e"
    }
  }, {
    "fullUrl": "Procedure/cd1f9a1a39fedb333d953a94169407e9327425dbfa86215925f3e4190665bd52",
    "resource": {
      "resourceType": "Procedure",
      "id": "cd1f9a1a39fedb333d953a94169407e9327425dbfa86215925f3e4190665bd52",
      "meta": {
        "profile": [ "https://www.medizininformatik-initiative.de/fhir/ext/modul-onko/StructureDefinition/mii-pr-onko-operation" ]
      },
      "extension": [ {
        "url": "https://www.medizininformatik-initiative.de/fhir/ext/modul-onko/StructureDefinition/mii-ex-onko-operation-intention",
        "valueCodeableConcept": {
          "coding": [ {
            "system": "https://www.medizininformatik-initiative.de/fhir/ext/modul-onko/CodeSystem/mii-cs-onko-intention",
            "code": "K"
          } ]
        }
      } ],
      "identifier": [ {
        "system": "https://bzkf.github.io/obds-to-fhir/identifiers/operation-procedure-id",
        "value": "3015-870"
      } ],
      "status": "completed",
      "category": {
        "coding": [ {
          "system": "http://snomed.info/sct",
          "code": "387713003",
          "display": "Surgical procedure"
        } ]
      },
      "code": {
        "coding": [ {
          "system": "http://fhir.de/CodeSystem/bfarm/ops",
          "version": "2020",
          "code": "5-870"
        } ]
      },
      "subject": {
        "reference": "Patient/a02e16474896f1d528cac71f2c9b4c45ac3c9028e3a53fb414a1f7882991ee07"
      },
      "performedDateTime": "2020-03-05",
      "reasonReference": [ {
        "reference": "Condition/9896edd80f6833ea17fbb2c5ad5ca42caa1d02f41baea875f4a390be3b372356"
      } ],
      "outcome": {
        "coding": [ {
          "system": "https://www.medizininformatik-initiative.de/fhir/ext/modul-onko/CodeSystem/mii-cs-onko-residualstatus",
          "code": "R0"
        } ]
      }
    },
    "request": {
      "method": "PUT",
      "url": "Procedure/cd1f9a1a39fedb333d953a94169407e9327425dbfa86215925f3e4190665bd52"
    }
  }, {
    "fullUrl": "Procedure/977dad45e5c07e0024a93e282b5bcba0399826697e27041d7efa70c3b59beef4",
    "resource": {
      "resourceType": "Procedure",
      "id": "977dad45e5c07e0024a93e282b5bcba0399826697e27041d7efa70c3b59beef4",
      "meta": {
        "profile": [ "https://www.medizininformatik-initiative.de/fhir/ext/modul-onko/StructureDefinition/mii-pr-onko-operation" ]
      },
      "extension": [ {
        "url": "https://www.medizininformatik-initiative.de/fhir/ext/modul-onko/StructureDefinition/mii-ex-onko-operation-intention",
        "valueCodeableConcept": {
          "coding": [ {
            "system": "https://www.medizininformatik-initiative.de/fhir/ext/modul-onko/CodeSystem/mii-cs-onko-intention",
            "code": "K"
          } ]
        }
      } ],
      "identifier": [ {
        "system": "https://bzkf.github.io/obds-to-fhir/identifiers/operation-procedure-id",
        "value": "3015-401.1"
      } ],
      "status": "completed",
      "category": {
        "coding": [ {
          "system": "http://snomed.info/sct",
          "code": "387713003",
          "display": "Surgical procedure"
        } ]
      },
      "code": {
        "coding": [ {
          "system": "http://fhir.de/CodeSystem/bfarm/ops",
          "version": "2020",
          "code": "5-401.1"
        } ]
      },
      "subject": {
        "reference": "Patient/a02e16474896f1d528cac71f2c9b4c45ac3c9028e3a53fb414a1f7882991ee07"
      },
      "performedDateTime": "2020-03-05",
      "reasonReference": [ {
        "reference": "Condition/9896edd80f6833ea17fbb2c5ad5ca42caa1d02f41baea875f4a390be3b372356"
      } ],
      "outcome": {
        "coding": [ {
          "system": "https://www.medizininformatik-initiative.de/fhir/ext/modul-onko/CodeSystem/mii-cs-onko-residualstatus",
          "code": "R0"
        } ]
      }
    },
    "request": {
      "method": "PUT",
      "url": "Procedure/977dad45e5c07e0024a93e282b5bcba0399826697e27041d7efa70c3b59beef4"
    }
  }, {
    "fullUrl": "Observation/daa3a29e56fbbdcdf2d899040e8a515eb5ae62414b7e1478d79d0b499469bbcc",
    "resource": {
      "resourceType": "Observation",
      "id": "daa3a29e56fbbdcdf2d899040e8a515eb5ae62414b7e1478d79d0b499469bbcc",
      "identifier": [ {
        "system": "https://bzkf.github.io/obds-to-fhir/identifiers/residualstatus-observation-id",
        "value": "301"
      } ],
      "status": "final",
      "code": {
        "coding": [ {
          "system": "http://loinc.org",
          "code": "84892-9"
        } ]
      },
      "subject": {
        "reference": "Patient/a02e16474896f1d528cac71f2c9b4c45ac3c9028e3a53fb414a1f7882991ee07"
      },
      "focus": [ {
        "reference": "Condition/9896edd80f6833ea17fbb2c5ad5ca42caa1d02f41baea875f4a390be3b372356"
      } ],
      "effectiveDateTime": "2020-03-05",
      "valueCodeableConcept": {
        "coding": [ {
          "system": "https://www.medizininformatik-initiative.de/fhir/ext/modul-onko/CodeSystem/mii-cs-onko-residualstatus",
          "code": "R2"
        } ]
      }
    },
    "request": {
      "method": "PUT",
      "url": "Observation/daa3a29e56fbbdcdf2d899040e8a515eb5ae62414b7e1478d79d0b499469bbcc"
    }
  }, {
    "fullUrl": "Specimen/ae7c48028dc89cdd5b4accd5e83a6fe8db4f68d40f42b7494889f1844f49079b",
    "resource": {
      "resourceType": "Specimen",
      "id": "ae7c48028dc89cdd5b4accd5e83a6fe8db4f68d40f42b7494889f1844f49079b",
      "meta": {
        "profile": [ "https://www.medizininformatik-initiative.de/fhir/ext/modul-onko/StructureDefinition/mii-pr-onko-specimen" ]
      },
      "identifier": [ {
        "system": "https://bzkf.github.io/obds-to-fhir/identifiers/specimen-id",
        "value": "522"
      } ],
      "accessionIdentifier": {
        "value": "X/123456/1"
      },
      "subject": {
        "reference": "Patient/a02e16474896f1d528cac71f2c9b4c45ac3c9028e3a53fb414a1f7882991ee07"
      },
      "collection": {
        "collectedDateTime": "2020-03-05"
      }
    },
    "request": {
      "method": "PUT",
      "url": "Specimen/ae7c48028dc89cdd5b4accd5e83a6fe8db4f68d40f42b7494889f1844f49079b"
    }
  }, {
    "fullUrl": "Observation/37a28612024525aaf3362d3f9020bf10bd0326e7a862cd214ac2e27f5ba5c64f",
    "resource": {
      "resourceType": "Observation",
      "id": "37a28612024525aaf3362d3f9020bf10bd0326e7a862cd214ac2e27f5ba5c64f",
      "meta": {
        "profile": [ "https://www.medizininformatik-initiative.de/fhir/ext/modul-onko/StructureDefinition/mii-pr-onko-histologie-icdo3" ]
      },
      "identifier": [ {
        "system": "https://bzkf.github.io/obds-to-fhir/identifiers/observation-histologie-id",
        "value": "522_ICDO3_8010/3"
      } ],
      "status": "final",
      "code": {
        "coding": [ {
          "system": "http://loinc.org",
          "code": "59847-4"
        } ]
      },
      "subject": {
        "reference": "Patient/a02e16474896f1d528cac71f2c9b4c45ac3c9028e3a53fb414a1f7882991ee07"
      },
      "focus": [ {
        "reference": "Condition/9896edd80f6833ea17fbb2c5ad5ca42caa1d02f41baea875f4a390be3b372356"
      } ],
      "effectiveDateTime": "2020-03-05",
      "valueCodeableConcept": {
        "coding": [ {
          "system": "http://terminology.hl7.org/CodeSystem/icd-o-3",
          "version": "33",
          "code": "8010/3"
        } ],
        "text": "Karzinom o.n.A."
      },
      "specimen": {
        "reference": "Specimen/ae7c48028dc89cdd5b4accd5e83a6fe8db4f68d40f42b7494889f1844f49079b"
      }
    },
    "request": {
      "method": "PUT",
      "url": "Observation/37a28612024525aaf3362d3f9020bf10bd0326e7a862cd214ac2e27f5ba5c64f"
    }
  }, {
    "fullUrl": "Observation/8bf2df94ceb38a13a76e02db47cc699998490ce120eab8b63be5c2bf0e251b97",
    "resource": {
      "resourceType": "Observation",
      "id": "8bf2df94ceb38a13a76e02db47cc699998490ce120eab8b63be5c2bf0e251b97",
      "meta": {
        "profile": [ "https://www.medizininformatik-initiative.de/fhir/ext/modul-onko/StructureDefinition/mii-pr-onko-grading" ]
      },
      "identifier": [ {
        "system": "https://bzkf.github.io/obds-to-fhir/identifiers/observation-histologie-id",
        "value": "522_Grading"
      } ],
      "status": "final",
      "category": [ {
        "coding": [ {
          "system": "http://terminology.hl7.org/CodeSystem/observation-category",
          "code": "laboratory"
        } ]
      } ],
      "code": {
        "coding": [ {
          "system": "http://loinc.org",
          "code": "33732-9"
        }, {
          "system": "http://snomed.info/sct",
          "code": "371469007"
        } ]
      },
      "subject": {
        "reference": "Patient/a02e16474896f1d528cac71f2c9b4c45ac3c9028e3a53fb414a1f7882991ee07"
      },
      "focus": [ {
        "reference": "Condition/9896edd80f6833ea17fbb2c5ad5ca42caa1d02f41baea875f4a390be3b372356"
      } ],
      "effectiveDateTime": "2020-03-05",
      "valueCodeableConcept": {
        "coding": [ {
          "system": "https://www.medizininformatik-initiative.de/fhir/ext/modul-onko/CodeSystem/mii-cs-onko-grading",
          "code": "2"
        } ]
      },
      "specimen": {
        "reference": "Specimen/ae7c48028dc89cdd5b4accd5e83a6fe8db4f68d40f42b7494889f1844f49079b"
      }
    },
    "request": {
      "method": "PUT",
      "url": "Observation/8bf2df94ceb38a13a76e02db47cc699998490ce120eab8b63be5c2bf0e251b97"
    }
  }, {
    "fullUrl": "Observation/a9ad5110baad5cd5d5ba373b347ea74818aa8899bbc00e906a52e488e2f574ae",
    "resource": {
      "resourceType": "Observation",
      "id": "a9ad5110baad5cd5d5ba373b347ea74818aa8899bbc00e906a52e488e2f574ae",
      "meta": {
        "profile": [ "https://www.medizininformatik-initiative.de/fhir/ext/modul-onko/StructureDefinition/mii-pr-onko-anzahl-befallene-lymphknoten" ]
      },
      "identifier": [ {
        "system": "https://bzkf.github.io/obds-to-fhir/identifiers/observation-histologie-id",
        "value": "522_befallen"
      } ],
      "status": "final",
      "category": [ {
        "coding": [ {
          "system": "http://terminology.hl7.org/CodeSystem/observation-category",
          "code": "laboratory"
        } ]
      } ],
      "code": {
        "coding": [ {
          "system": "http://loinc.org",
          "code": "21893-3"
        }, {
          "system": "http://snomed.info/sct",
          "code": "443527007"
        } ]
      },
      "subject": {
        "reference": "Patient/a02e16474896f1d528cac71f2c9b4c45ac3c9028e3a53fb414a1f7882991ee07"
      },
      "focus": [ {
        "reference": "Condition/9896edd80f6833ea17fbb2c5ad5ca42caa1d02f41baea875f4a390be3b372356"
      } ],
      "effectiveDateTime": "2020-03-05",
      "valueQuantity": {
        "value": 2,
        "unit": "#",
        "system": "http://unitsofmeasure.org",
        "code": "1"
      },
      "specimen": {
        "reference": "Specimen/ae7c48028dc89cdd5b4accd5e83a6fe8db4f68d40f42b7494889f1844f49079b"
      }
    },
    "request": {
      "method": "PUT",
      "url": "Observation/a9ad5110baad5cd5d5ba373b347ea74818aa8899bbc00e906a52e488e2f574ae"
    }
  }, {
    "fullUrl": "Observation/4d5e5848caf4c5c2e960b813d83c17aed7fd14ec0faa8668db7b00df95528359",
    "resource": {
      "resourceType": "Observation",
      "id": "4d5e5848caf4c5c2e960b813d83c17aed7fd14ec0faa8668db7b00df95528359",
      "meta": {
        "profile": [ "https://www.medizininformatik-initiative.de/fhir/ext/modul-onko/StructureDefinition/mii-pr-onko-anzahl-untersuchte-lymphknoten" ]
      },
      "identifier": [ {
        "system": "https://bzkf.github.io/obds-to-fhir/identifiers/observation-histologie-id",
        "value": "522_untersucht"
      } ],
      "status": "final",
      "category": [ {
        "coding": [ {
          "system": "http://terminology.hl7.org/CodeSystem/observation-category",
          "code": "laboratory"
        } ]
      } ],
      "code": {
        "coding": [ {
          "system": "http://loinc.org",
          "code": "21894-1"
        }, {
          "system": "http://snomed.info/sct",
          "code": "444025001"
        } ]
      },
      "subject": {
        "reference": "Patient/a02e16474896f1d528cac71f2c9b4c45ac3c9028e3a53fb414a1f7882991ee07"
      },
      "focus": [ {
        "reference": "Condition/9896edd80f6833ea17fbb2c5ad5ca42caa1d02f41baea875f4a390be3b372356"
      } ],
      "effectiveDateTime": "2020-03-05",
      "valueQuantity": {
        "value": 10,
        "unit": "#",
        "system": "http://unitsofmeasure.org",
        "code": "1"
      },
      "specimen": {
        "reference": "Specimen/ae7c48028dc89cdd5b4accd5e83a6fe8db4f68d40f42b7494889f1844f49079b"
      }
    },
    "request": {
      "method": "PUT",
      "url": "Observation/4d5e5848caf4c5c2e960b813d83c17aed7fd14ec0faa8668db7b00df95528359"
    }
  }, {
    "fullUrl": "Observation/19c7c01cbe221e80ff3c3f466f3df9ba519a8f234616c99c7eef8817d4f342d9",
    "resource": {
      "resourceType": "Observation",
      "id": "19c7c01cbe221e80ff3c3f466f3df9ba519a8f234616c99c7eef8817d4f342d9",
      "meta": {
        "profile": [ "https://www.medizininformatik-initiative.de/fhir/ext/modul-onko/StructureDefinition/mii-pr-onko-anzahl-befallene-sentinel-lymphknoten" ]
      },
      "identifier": [ {
        "system": "https://bzkf.github.io/obds-to-fhir/identifiers/observation-histologie-id",
        "value": "522_befallen_sentinel"
      } ],
      "status": "final",
      "category": [ {
        "coding": [ {
          "system": "http://terminology.hl7.org/CodeSystem/observation-category",
          "code": "laboratory"
        } ]
      } ],
      "code": {
        "coding": [ {
          "system": "http://loinc.org",
          "code": "92832-5"
        }, {
          "system": "http://snomed.info/sct",
          "code": "1264491009"
        } ]
      },
      "subject": {
        "reference": "Patient/a02e16474896f1d528cac71f2c9b4c45ac3c9028e3a53fb414a1f7882991ee07"
      },
      "focus": [ {
        "reference": "Condition/9896edd80f6833ea17fbb2c5ad5ca42caa1d02f41baea875f4a390be3b372356"
      } ],
      "effectiveDateTime": "2020-03-05",
      "valueQuantity": {
        "value": 1,
        "unit": "#",
        "system": "http://unitsofmeasure.org",
        "code": "1"
      },
      "specimen": {
        "reference": "Specimen/ae7c48028dc89cdd5b4accd5e83a6fe8db4f68d40f42b7494889f1844f49079b"
      }
    },
    "request": {
      "method": "PUT",
      "url": "Observation/19c7c01cbe221e80ff3c3f466f3df9ba519a8f234616c99c7eef8817d4f342d9"
    }
  }, {
    "fullUrl": "Observation/9c2af727f1c18780ed2a5547fab8a1bd1f358cab563a4f0a057b0449a0890827",
    "resource": {
      "resourceType": "Observation",
      "id": "9c2af727f1c18780ed2a5547fab8a1bd1f358cab563a4f0a057b0449a0890827",
      "meta": {
        "profile": [ "https://www.medizininformatik-initiative.de/fhir/ext/modul-onko/StructureDefinition/mii-pr-onko-anzahl-untersuchte-sentinel-lymphknoten" ]
      },
      "identifier": [ {
        "system": "https://bzkf.github.io/obds-to-fhir/identifiers/observation-histologie-id",
        "value": "522_untersucht_sentinel"
      } ],
      "status": "final",
      "category": [ {
        "coding": [ {
          "system": "http://terminology.hl7.org/CodeSystem/observation-category",
          "code": "laboratory"
        } ]
      } ],
      "code": {
        "coding": [ {
          "system": "http://loinc.org",
          "code": "85347-3"
        }, {
          "system": "http://snomed.info/sct",
          "code": "444411008"
        } ]
      },
      "subject": {
        "reference": "Patient/a02e16474896f1d528cac71f2c9b4c45ac3c9028e3a53fb414a1f7882991ee07"
      },
      "focus": [ {
        "reference": "Condition/9896edd80f6833ea17fbb2c5ad5ca42caa1d02f41baea875f4a390be3b372356"
      } ],
      "effectiveDateTime": "2020-03-05",
      "valueQuantity": {
        "value": 2,
        "unit": "#",
        "system": "http://unitsofmeasure.org",
        "code": "1"
      },
      "specimen": {
        "reference": "Specimen/ae7c48028dc89cdd5b4accd5e83a6fe8db4f68d40f42b7494889f1844f49079b"
      }
    },
    "request": {
      "method": "PUT",
      "url": "Observation/9c2af727f1c18780ed2a5547fab8a1bd1f358cab563a4f0a057b0449a0890827"
    }
  }, {
    "fullUrl": "Procedure/bfc5c7a0c00d1c00e9ab41a4507f8cfbbc87e13953eba89e14c3fe3a54325559",
    "resource": {
      "resourceType": "Procedure",
      "id": "bfc5c7a0c00d1c00e9ab41a4507f8cfbbc87e13953eba89e14c3fe3a54325559",
      "meta": {
        "profile": [ "https://www.medizininformatik-initiative.de/fhir/ext/modul-onko/StructureDefinition/mii-pr-onko-strahlentherapie" ]
      },
      "extension": [ {
        "url": "https://www.medizininformatik-initiative.de/fhir/ext/modul-onko/StructureDefinition/mii-ex-onko-strahlentherapie-intention",
        "valueCodeableConcept": {
          "coding": [ {
            "system": "https://www.medizininformatik-initiative.de/fhir/ext/modul-onko/CodeSystem/mii-cs-onko-intention",
            "code": "P"
          } ]
        }
      }, {
        "url": "https://www.medizininformatik-initiative.de/fhir/ext/modul-onko/StructureDefinition/mii-ex-onko-strahlentherapie-bestrahlung",
        "extension": [ {
          "url": "Applikationsart",
          "valueCodeableConcept": {
            "coding": [ {
              "system": "https://www.medizininformatik-initiative.de/fhir/ext/modul-onko/CodeSystem/mii-cs-onko-strahlentherapie-applikationsart",
              "code": "P-ST"
            } ]
          }
        }, {
          "url": "Strahlenart",
          "valueCodeableConcept": {
            "coding": [ {
              "system": "https://www.medizininformatik-initiative.de/fhir/ext/modul-onko/CodeSystem/mii-cs-onko-strahlentherapie-strahlenart",
              "code": "UH"
            } ]
          }
        }, {
          "url": "Zielgebiet",
          "valueCodeableConcept": {
            "coding": [ {
              "system": "https://www.medizininformatik-initiative.de/fhir/ext/modul-onko/CodeSystem/mii-cs-onko-strahlentherapie-zielgebiet",
              "code": "3.4"
            } ]
          }
        } ]
      } ],
      "identifier": [ {
        "system": "https://bzkf.github.io/obds-to-fhir/identifiers/strahlentherapie-procedure-id",
        "value": "101_ST-2"
      } ],
      "status": "completed",
      "category": {
        "coding": [ {
          "system": "http://snomed.info/sct",
          "code": "277132007",
          "display": "Therapeutic procedure"
        } ]
      },
      "code": {
        "coding": [ {
          "system": "http://fhir.de/CodeSystem/bfarm/ops",
          "_code": {
            "extension": [ {
              "url": "http://hl7.org/fhir/StructureDefinition/data-absent-reason",
              "valueCode": "unknown"
            } ]
          }
        } ]
      },
      "subject": {
        "reference": "Patient/a02e16474896f1d528cac71f2c9b4c45ac3c9028e3a53fb414a1f7882991ee07"
      },
      "performedPeriod": {
        "_start": {
          "extension": [ {
            "url": "http://hl7.org/fhir/StructureDefinition/data-absent-reason",
            "valueCode": "unknown"
          } ]
        }
      }
    },
    "request": {
      "method": "PUT",
      "url": "Procedure/bfc5c7a0c00d1c00e9ab41a4507f8cfbbc87e13953eba89e14c3fe3a54325559"
    }
  }, {
    "fullUrl": "Procedure/8e5a61d808bb30074e894fc702086b24763c410267b91c86f75de0b3b6507ccf",
    "resource": {
      "resourceType": "Procedure",
      "id": "8e5a61d808bb30074e894fc702086b24763c410267b91c86f75de0b3b6507ccf",
      "meta": {
        "profile": [ "https://www.medizininformatik-initiative.de/fhir/ext/modul-onko/StructureDefinition/mii-pr-onko-systemische-therapie" ]
      },
      "extension": [ {
        "url": "https://www.medizininformatik-initiative.de/fhir/ext/modul-onko/StructureDefinition/mii-ex-onko-systemische-therapie-intention",
        "valueCodeableConcept": {
          "coding": [ {
            "system": "https://www.medizininformatik-initiative.de/fhir/ext/modul-onko/CodeSystem/mii-cs-onko-intention",
            "code": "P"
          } ]
        }
      } ],
      "identifier": [ {
        "system": "https://bzkf.github.io/obds-to-fhir/identifiers/systemische-therapie-procedure-id",
        "value": "101_IN-1"
      } ],
      "status": "completed",
      "category": {
        "coding": [ {
          "system": "http://snomed.info/sct",
          "code": "18629005"
        } ]
      },
      "code": {
        "coding": [ {
          "system": "http://fhir.de/CodeSystem/bfarm/ops",
          "code": "8-54"
        }, {
          "system": "https://www.medizininformatik-initiative.de/fhir/ext/modul-onko/CodeSystem/mii-cs-onko-therapie-typ",
          "code": "IM"
        } ]
      },
      "subject": {
        "reference": "Patient/a02e16474896f1d528cac71f2c9b4c45ac3c9028e3a53fb414a1f7882991ee07"
      },
      "performedPeriod": {
        "start": "2020-05",
        "end": "2020-10-15"
      },
      "outcome": {
        "coding": [ {
          "system": "https://www.medizininformatik-initiative.de/fhir/ext/modul-onko/CodeSystem/mii-cs-therapie-grund-ende",
          "code": "V"
        } ]
      }
    },
    "request": {
      "method": "PUT",
      "url": "Procedure/8e5a61d808bb30074e894fc702086b24763c410267b91c86f75de0b3b6507ccf"
    }
  }, {
    "fullUrl": "MedicationStatement/050a031e5a9043c28c565c6b60550c3d34cd059bc2f24c195cdb807f099cd978",
    "resource": {
      "resourceType": "MedicationStatement",
      "id": "050a031e5a9043c28c565c6b60550c3d34cd059bc2f24c195cdb807f099cd978",
      "meta": {
        "profile": [ "https://www.medizininformatik-initiative.de/fhir/core/modul-medikation/StructureDefinition/MedicationStatement" ]
      },
      "identifier": [ {
        "system": "https://bzkf.github.io/obds-to-fhir/identifiers/systemische-therapie-medication-statement-id",
        "value": "101_IN-1_L01FF05"
      } ],
      "partOf": [ {
        "reference": "Procedure/8e5a61d808bb30074e894fc702086b24763c410267b91c86f75de0b3b6507ccf"
      } ],
      "status": "completed",
      "medicationCodeableConcept": {
        "coding": [ {
          "system": "http://fhir.de/CodeSystem/bfarm/atc",
          "code": "L01FF05"
        } ]
      },
      "subject": {
        "reference": "Patient/a02e16474896f1d528cac71f2c9b4c45ac3c9028e3a53fb414a1f7882991ee07"
      },
      "effectivePeriod": {
        "start": "2020-05",
        "end": "2020-10-15"
      }
    },
    "request": {
      "method": "PUT",
      "url": "MedicationStatement/050a031e5a9043c28c565c6b60550c3d34cd059bc2f24c195cdb807f099cd978"
    }
  }, {
    "fullUrl": "Observation/ddbc380f1daef8dfac48e0cfea3a6c594bf1354ffdbb7a71eae13ab27e9b39ca",
    "resource": {
      "resourceType": "Observation",
      "id": "ddbc380f1daef8dfac48e0cfea3a6c594bf1354ffdbb7a71eae13ab27e9b39ca",
      "meta": {
        "profile": [ "https://www.medizininformatik-initiative.de/fhir/ext/modul-onko/StructureDefinition/mii-pr-onko-fernmetastasen" ]
      },
      "identifier": [ {
        "system": "https://bzkf.github.io/obds-to-fhir/identifiers/fernmetastasen-id",
        "value": "10_1_VE-1-Verlauf-0"
      } ],
      "status": "final",
      "code": {
        "coding": [ {
          "system": "http://snomed.info/sct",
          "code": "385421009"
        } ]
      },
      "subject": {
        "reference": "Patient/a02e16474896f1d528cac71f2c9b4c45ac3c9028e3a53fb414a1f7882991ee07"
      },
      "focus": [ {
        "reference": "Condition/9896edd80f6833ea17fbb2c5ad5ca42caa1d02f41baea875f4a390be3b372356"
      } ],
      "effectiveDateTime": "2021-06-01",
      "valueCodeableConcept": {
        "coding": [ {
          "system": "https://www.medizininformatik-initiative.de/fhir/ext/modul-onko/CodeSystem/mii-cs-onko-fernmetastasen",
          "code": "BRA"
        } ]
      }
    },
    "request": {
      "method": "PUT",
      "url": "Observation/ddbc380f1daef8dfac48e0cfea3a6c594bf1354ffdbb7a71eae13ab27e9b39ca"
    }
  }, {
    "fullUrl": "Specimen/ad4b122c2df5025505010afee92111e127e89d717e074e5b871d492999909a20",
    "resource": {
      "resourceType": "Specimen",
      "id": "ad4b122c2df5025505010afee92111e127e89d717e074e5b871d492999909a20",
      "meta": {
        "profile": [ "https://www.medizininformatik-initiative.de/fhir/ext/modul-onko/StructureDefinition/mii-pr-onko-specimen" ]
      },
      "identifier": [ {
        "system": "https://bzkf.github.io/obds-to-fhir/identifiers/specimen-id",
        "value": "523"
      } ],
      "accessionIdentifier": {
        "value": "X/654987/1"
      },
      "subject": {
        "reference": "Patient/a02e16474896f1d528cac71f2c9b4c45ac3c9028e3a53fb414a1f7882991ee07"
      },
      "collection": {
        "collectedDateTime": "2021-06-01"
      }
    },
    "request": {
      "method": "PUT",
      "url": "Specimen/ad4b122c2df5025505010afee92111e127e89d717e074e5b871d492999909a20"
    }
  }, {
    "fullUrl": "Observation/aa9d1698a8383e5e4cafb0697c60e2b6797a21a24c5c767c1099a476f887c4c4",
    "resource": {
      "resourceType": "Observation",
      "id": "aa9d1698a8383e5e4cafb0697c60e2b6797a21a24c5c767c1099a476f887c4c4",
      "meta": {
        "profile": [ "https://www.medizininformatik-initiative.de/fhir/ext/modul-onko/StructureDefinition/mii-pr-onko-histologie-icdo3" ]
      },
      "identifier": [ {
        "system": "https://bzkf.github.io/obds-to-fhir/identifiers/observation-histologie-id",
        "value": "523_ICDO3_8010/3"
      } ],
      "status": "final",
      "code": {
        "coding": [ {
          "system": "http://loinc.org",
          "code": "59847-4"
        } ]
      },
      "subject": {
        "reference": "Patient/a02e16474896f1d528cac71f2c9b4c45ac3c9028e3a53fb414a1f7882991ee07"
      },
      "focus": [ {
        "reference": "Condition/9896edd80f6833ea17fbb2c5ad5ca42caa1d02f41baea875f4a390be3b372356"
      } ],
      "effectiveDateTime": "2021-06-01",
      "valueCodeableConcept": {
        "coding": [ {
          "system": "http://terminology.hl7.org/CodeSystem/icd-o-3",
          "version": "33",
          "code": "8010/3"
        } ],
        "text": "Karzinom o.n.A."
      },
      "specimen": {
        "reference": "Specimen/ad4b122c2df5025505010afee92111e127e89d717e074e5b871d492999909a20"
      }
    },
    "request": {
      "method": "PUT",
      "url": "Observation/aa9d1698a8383e5e4cafb0697c60e2b6797a21a24c5c767c1099a476f887c4c4"
    }
  }, {
    "fullUrl": "Observation/576850075a4b74efbf2735eac96a6a874741fb794e6d53b3a862c4191d69cf94",
    "resource": {
      "resourceType": "Observation",
      "id": "576850075a4b74efbf2735eac96a6a874741fb794e6d53b3a862c4191d69cf94",
      "meta": {
        "profile": [ "https://www.medizininformatik-initiative.de/fhir/ext/modul-onko/StructureDefinition/mii-pr-onko-grading" ]
      },
      "identifier": [ {
        "system": "https://bzkf.github.io/obds-to-fhir/identifiers/observation-histologie-id",
        "value": "523_Grading"
      } ],
      "status": "final",
      "category": [ {
        "coding": [ {
          "system": "http://terminology.hl7.org/CodeSystem/observation-category",
          "code": "laboratory"
        } ]
      } ],
      "code": {
        "coding": [ {
          "system": "http://loinc.org",
          "code": "33732-9"
        }, {
          "system": "http://snomed.info/sct",
          "code": "371469007"
        } ]
      },
      "subject": {
        "reference": "Patient/a02e16474896f1d528cac71f2c9b4c45ac3c9028e3a53fb414a1f7882991ee07"
      },
      "focus": [ {
        "reference": "Condition/9896edd80f6833ea17fbb2c5ad5ca42caa1d02f41baea875f4a390be3b372356"
      } ],
      "effectiveDateTime": "2021-06-01",
      "valueCodeableConcept": {
        "coding": [ {
          "system": "https://www.medizininformatik-initiative.de/fhir/ext/modul-onko/CodeSystem/mii-cs-onko-grading",
          "code": "2"
        } ]
      },
      "specimen": {
        "reference": "Specimen/ad4b122c2df5025505010afee92111e127e89d717e074e5b871d492999909a20"
      }
    },
    "request": {
      "method": "PUT",
      "url": "Observation/576850075a4b74efbf2735eac96a6a874741fb794e6d53b3a862c4191d69cf94"
    }
  }, {
    "fullUrl": "Observation/858ffdfb167ec08b54503025564dc7c695476c081bbfd2953f8989cee7f7622a",
    "resource": {
      "resourceType": "Observation",
      "id": "858ffdfb167ec08b54503025564dc7c695476c081bbfd2953f8989cee7f7622a",
      "meta": {
        "profile": [ "https://www.medizininformatik-initiative.de/fhir/ext/modul-onko/StructureDefinition/mii-pr-onko-anzahl-befallene-lymphknoten" ]
      },
      "identifier": [ {
        "system": "https://bzkf.github.io/obds-to-fhir/identifiers/observation-histologie-id",
        "value": "523_befallen"
      } ],
      "status": "final",
      "category": [ {
        "coding": [ {
          "system": "http://terminology.hl7.org/CodeSystem/observation-category",
          "code": "laboratory"
        } ]
      } ],
      "code": {
        "coding": [ {
          "system": "http://loinc.org",
          "code": "21893-3"
        }, {
          "system": "http://snomed.info/sct",
          "code": "443527007"
        } ]
      },
      "subject": {
        "reference": "Patient/a02e16474896f1d528cac71f2c9b4c45ac3c9028e3a53fb414a1f7882991ee07"
      },
      "focus": [ {
        "reference": "Condition/9896edd80f6833ea17fbb2c5ad5ca42caa1d02f41baea875f4a390be3b372356"
      } ],
      "effectiveDateTime": "2021-06-01",
      "valueQuantity": {
        "value": 5,
        "unit": "#",
        "system": "http://unitsofmeasure.org",
        "code": "1"
      },
      "specimen": {
        "reference": "Specimen/ad4b122c2df5025505010afee92111e127e89d717e074e5b871d492999909a20"
      }
    },
    "request": {
      "method": "PUT",
      "url": "Observation/858ffdfb167ec08b54503025564dc7c695476c081bbfd2953f8989cee7f7622a"
    }
  }, {
    "fullUrl": "Observation/f9fb8adb157ee314ebb3abbfe80ba1174764e70c54fec8cdd79c1c5897605f48",
    "resource": {
      "resourceType": "Observation",
      "id": "f9fb8adb157ee314ebb3abbfe80ba1174764e70c54fec8cdd79c1c5897605f48",
      "meta": {
        "profile": [ "https://www.medizininformatik-initiative.de/fhir/ext/modul-onko/StructureDefinition/mii-pr-onko-anzahl-untersuchte-lymphknoten" ]
      },
      "identifier": [ {
        "system": "https://bzkf.github.io/obds-to-fhir/identifiers/observation-histologie-id",
        "value": "523_untersucht"
      } ],
      "status": "final",
      "category": [ {
        "coding": [ {
          "system": "http://terminology.hl7.org/CodeSystem/observation-category",
          "code": "laboratory"
        } ]
      } ],
      "code": {
        "coding": [ {
          "system": "http://loinc.org",
          "code": "21894-1"
        }, {
          "system": "http://snomed.info/sct",
          "code": "444025001"
        } ]
      },
      "subject": {
        "reference": "Patient/a02e16474896f1d528cac71f2c9b4c45ac3c9028e3a53fb414a1f7882991ee07"
      },
      "focus": [ {
        "reference": "Condition/9896edd80f6833ea17fbb2c5ad5ca42caa1d02f41baea875f4a390be3b372356"
      } ],
      "effectiveDateTime": "2021-06-01",
      "valueQuantity": {
        "value": 5,
        "unit": "#",
        "system": "http://unitsofmeasure.org",
        "code": "1"
      },
      "specimen": {
        "reference": "Specimen/ad4b122c2df5025505010afee92111e127e89d717e074e5b871d492999909a20"
      }
    },
    "request": {
      "method": "PUT",
      "url": "Observation/f9fb8adb157ee314ebb3abbfe80ba1174764e70c54fec8cdd79c1c5897605f48"
    }
  }, {
    "fullUrl": "Observation/3c7a32d931b0826c46b0aadcfecfc638f841c2903416fb4a5e651956ac95ffdf",
    "resource": {
      "resourceType": "Observation",
      "id": "3c7a32d931b0826c46b0aadcfecfc638f841c2903416fb4a5e651956ac95ffdf",
      "meta": {
        "profile": [ "https://www.medizininformatik-initiative.de/fhir/ext/modul-onko/StructureDefinition/mii-pr-onko-anzahl-befallene-sentinel-lymphknoten" ]
      },
      "identifier": [ {
        "system": "https://bzkf.github.io/obds-to-fhir/identifiers/observation-histologie-id",
        "value": "523_befallen_sentinel"
      } ],
      "status": "final",
      "category": [ {
        "coding": [ {
          "system": "http://terminology.hl7.org/CodeSystem/observation-category",
          "code": "laboratory"
        } ]
      } ],
      "code": {
        "coding": [ {
          "system": "http://loinc.org",
          "code": "92832-5"
        }, {
          "system": "http://snomed.info/sct",
          "code": "1264491009"
        } ]
      },
      "subject": {
        "reference": "Patient/a02e16474896f1d528cac71f2c9b4c45ac3c9028e3a53fb414a1f7882991ee07"
      },
      "focus": [ {
        "reference": "Condition/9896edd80f6833ea17fbb2c5ad5ca42caa1d02f41baea875f4a390be3b372356"
      } ],
      "effectiveDateTime": "2021-06-01",
      "valueQuantity": {
        "value": 1,
        "unit": "#",
        "system": "http://unitsofmeasure.org",
        "code": "1"
      },
      "specimen": {
        "reference": "Specimen/ad4b122c2df5025505010afee92111e127e89d717e074e5b871d492999909a20"
      }
    },
    "request": {
      "method": "PUT",
      "url": "Observation/3c7a32d931b0826c46b0aadcfecfc638f841c2903416fb4a5e651956ac95ffdf"
    }
  }, {
    "fullUrl": "Observation/d0bcfa8a23b41c9f12b0ec2265a0bdc80ea7c3c6b81622b30d28ede5d9043f3c",
    "resource": {
      "resourceType": "Observation",
      "id": "d0bcfa8a23b41c9f12b0ec2265a0bdc80ea7c3c6b81622b30d28ede5d9043f3c",
      "meta": {
        "profile": [ "https://www.medizininformatik-initiative.de/fhir/ext/modul-onko/StructureDefinition/mii-pr-onko-anzahl-untersuchte-sentinel-lymphknoten" ]
      },
      "identifier": [ {
        "system": "https://bzkf.github.io/obds-to-fhir/identifiers/observation-histologie-id",
        "value": "523_untersucht_sentinel"
      } ],
      "status": "final",
      "category": [ {
        "coding": [ {
          "system": "http://terminology.hl7.org/CodeSystem/observation-category",
          "code": "laboratory"
        } ]
      } ],
      "code": {
        "coding": [ {
          "system": "http://loinc.org",
          "code": "85347-3"
        }, {
          "system": "http://snomed.info/sct",
          "code": "444411008"
        } ]
      },
      "subject": {
        "reference": "Patient/a02e16474896f1d528cac71f2c9b4c45ac3c9028e3a53fb414a1f7882991ee07"
      },
      "focus": [ {
        "reference": "Condition/9896edd80f6833ea17fbb2c5ad5ca42caa1d02f41baea875f4a390be3b372356"
      } ],
      "effectiveDateTime": "2021-06-01",
      "valueQuantity": {
        "value": 1,
        "unit": "#",
        "system": "http://unitsofmeasure.org",
        "code": "1"
      },
      "specimen": {
        "reference": "Specimen/ad4b122c2df5025505010afee92111e127e89d717e074e5b871d492999909a20"
      }
    },
    "request": {
      "method": "PUT",
      "url": "Observation/d0bcfa8a23b41c9f12b0ec2265a0bdc80ea7c3c6b81622b30d28ede5d9043f3c"
    }
  }, {
    "fullUrl": "Observation/cbc4593c9af41236a6be7702dc0d63747819059028e1f7a9ee46384a368045eb",
    "resource": {
      "resourceType": "Observation",
      "id": "cbc4593c9af41236a6be7702dc0d63747819059028e1f7a9ee46384a368045eb",
      "meta": {
        "profile": [ "https://www.medizininformatik-initiative.de/fhir/ext/modul-onko/StructureDefinition/mii-pr-onko-tod" ]
      },
      "identifier": [ {
        "system": "https://bzkf.github.io/obds-to-fhir/identifiers/tod-observation-id",
        "value": "161_C50.9"
      } ],
      "status": "final",
      "code": {
        "coding": [ {
          "system": "http://snomed.info/sct",
          "code": "184305005"
        } ]
      },
      "subject": {
        "reference": "Patient/a02e16474896f1d528cac71f2c9b4c45ac3c9028e3a53fb414a1f7882991ee07"
      },
      "focus": [ {
        "reference": "Condition/9896edd80f6833ea17fbb2c5ad5ca42caa1d02f41baea875f4a390be3b372356"
      } ],
      "effectiveDateTime": "2022-08-01",
      "valueCodeableConcept": {
        "coding": [ {
          "system": "http://fhir.de/CodeSystem/bfarm/icd-10-gm",
          "version": "2020",
          "code": "C50.9"
        } ]
      },
      "interpretation": [ {
        "coding": [ {
          "system": "https://www.medizininformatik-initiative.de/fhir/ext/modul-onko/CodeSystem/mii-cs-onko-tod",
          "code": "J"
        } ]
      } ]
    },
    "request": {
      "method": "PUT",
      "url": "Observation/cbc4593c9af41236a6be7702dc0d63747819059028e1f7a9ee46384a368045eb"
    }
  }, {
    "fullUrl": "Observation/8170fbf5aebdce7c20b3f7c634b1367c621664782d28d4c57593e4d8d048c8cd",
    "resource": {
      "resourceType": "Observation",
      "id": "8170fbf5aebdce7c20b3f7c634b1367c621664782d28d4c57593e4d8d048c8cd",
      "meta": {
        "profile": [ "https://www.medizininformatik-initiative.de/fhir/ext/modul-onko/StructureDefinition/mii-pr-onko-tod" ]
      },
      "identifier": [ {
        "system": "https://bzkf.github.io/obds-to-fhir/identifiers/tod-observation-id",
        "value": "161_T57.3"
      } ],
      "status": "final",
      "code": {
        "coding": [ {
          "system": "http://snomed.info/sct",
          "code": "184305005"
        } ]
      },
      "subject": {
        "reference": "Patient/a02e16474896f1d528cac71f2c9b4c45ac3c9028e3a53fb414a1f7882991ee07"
      },
      "focus": [ {
        "reference": "Condition/9896edd80f6833ea17fbb2c5ad5ca42caa1d02f41baea875f4a390be3b372356"
      } ],
      "effectiveDateTime": "2022-08-01",
      "valueCodeableConcept": {
        "coding": [ {
          "system": "http://fhir.de/CodeSystem/bfarm/icd-10-gm",
          "version": "2020",
          "code": "T57.3"
        } ]
      },
      "interpretation": [ {
        "coding": [ {
          "system": "https://www.medizininformatik-initiative.de/fhir/ext/modul-onko/CodeSystem/mii-cs-onko-tod",
          "code": "J"
        } ]
      } ]
    },
    "request": {
      "method": "PUT",
      "url": "Observation/8170fbf5aebdce7c20b3f7c634b1367c621664782d28d4c57593e4d8d048c8cd"
    }
  }, {
    "fullUrl": "Condition/5236d8328066567b90c671091d739dc044ae00f4f9e73a5d1e6c81ed9049f335",
    "resource": {
      "resourceType": "Condition",
      "id": "5236d8328066567b90c671091d739dc044ae00f4f9e73a5d1e6c81ed9049f335",
      "meta": {
        "profile": [ "https://www.medizininformatik-initiative.de/fhir/ext/modul-onko/StructureDefinition/mii-pr-onko-diagnose-primaertumor" ]
      },
      "extension": [ {
        "url": "https://www.medizininformatik-initiative.de/fhir/ext/modul-onko/StructureDefinition/mii-ex-onko-histology-morphology-behavior-icdo3",
        "valueCodeableConcept": {
          "coding": [ {
            "system": "http://terminology.hl7.org/CodeSystem/icd-o-3",
            "version": "33",
            "code": "8010/3"
          } ]
        }
      }, {
        "url": "http://hl7.org/fhir/StructureDefinition/condition-assertedDate",
        "valueDateTime": "2020-01-01"
      } ],
      "identifier": [ {
        "system": "https://bzkf.github.io/obds-to-fhir/identifiers/primaerdiagnose-id",
        "value": "102"
      } ],
      "verificationStatus": {
        "coding": [ {
          "system": "http://terminology.hl7.org/CodeSystem/condition-ver-status",
          "code": "confirmed"
        }, {
          "system": "https://www.medizininformatik-initiative.de/fhir/ext/modul-onko/CodeSystem/mii-cs-onko-primaertumor-diagnosesicherung",
          "code": "7"
        } ]
      },
      "code": {
        "coding": [ {
          "system": "http://fhir.de/CodeSystem/bfarm/icd-10-gm",
          "version": "2020",
          "code": "C20"
        } ]
      },
      "bodySite": [ {
        "coding": [ {
          "system": "http://terminology.hl7.org/CodeSystem/icd-o-3",
          "version": "33",
          "code": "C20.9"
        } ]
      }, {
        "coding": [ {
          "system": "https://www.medizininformatik-initiative.de/fhir/ext/modul-onko/CodeSystem/mii-cs-onko-seitenlokalisation",
          "code": "T"
        } ]
      } ],
      "subject": {
        "reference": "Patient/a02e16474896f1d528cac71f2c9b4c45ac3c9028e3a53fb414a1f7882991ee07"
      },
      "recordedDate": "2024-09-19"
    },
    "request": {
      "method": "PUT",
      "url": "Condition/5236d8328066567b90c671091d739dc044ae00f4f9e73a5d1e6c81ed9049f335"
    }
  }, {
    "fullUrl": "Observation/7d6cfaae048e593bc9538124062743dc6c1fd2c433854ace4a41fed8a2d5b9a8",
    "resource": {
      "resourceType": "Observation",
      "id": "7d6cfaae048e593bc9538124062743dc6c1fd2c433854ace4a41fed8a2d5b9a8",
      "meta": {
        "profile": [ "https://www.medizininformatik-initiative.de/fhir/ext/modul-onko/StructureDefinition/mii-pr-onko-allgemeiner-leistungszustand-ecog" ]
      },
      "identifier": [ {
        "system": "https://bzkf.github.io/obds-to-fhir/identifiers/allgemeiner-leistungszustand-ecog-id",
        "value": "ECOG-10_2_DI_1"
      } ],
      "status": "final",
      "code": {
        "coding": [ {
          "system": "http://snomed.info/sct",
          "code": "423740007"
        } ]
      },
      "subject": {
        "reference": "Patient/a02e16474896f1d528cac71f2c9b4c45ac3c9028e3a53fb414a1f7882991ee07"
      },
      "focus": [ {
        "reference": "Condition/5236d8328066567b90c671091d739dc044ae00f4f9e73a5d1e6c81ed9049f335"
      } ],
      "effectiveDateTime": "2020-01-01",
      "valueCodeableConcept": {
        "coding": [ {
          "system": "https://www.medizininformatik-initiative.de/fhir/ext/modul-onko/CodeSystem/mii-cs-onko-allgemeiner-leistungszustand-ecog",
          "code": "0",
          "display": "Normale, uneingeschränkte Aktivität wie vor der Erkrankung (90 - 100 % nach Karnofsky)"
        } ]
      }
    },
    "request": {
      "method": "PUT",
      "url": "Observation/7d6cfaae048e593bc9538124062743dc6c1fd2c433854ace4a41fed8a2d5b9a8"
    }
  }, {
    "fullUrl": "Procedure/ed5b745ca4c7e7fbc6c581157a677b46028f7fbea03623571edd2440d993b760",
    "resource": {
      "resourceType": "Procedure",
      "id": "ed5b745ca4c7e7fbc6c581157a677b46028f7fbea03623571edd2440d993b760",
      "meta": {
        "profile": [ "https://www.medizininformatik-initiative.de/fhir/ext/modul-onko/StructureDefinition/mii-pr-onko-operation" ]
      },
      "extension": [ {
        "url": "https://www.medizininformatik-initiative.de/fhir/ext/modul-onko/StructureDefinition/mii-ex-onko-operation-intention",
        "valueCodeableConcept": {
          "coding": [ {
            "system": "https://www.medizininformatik-initiative.de/fhir/ext/modul-onko/CodeSystem/mii-cs-onko-intention",
            "code": "K"
          } ]
        }
      } ],
      "identifier": [ {
        "system": "https://bzkf.github.io/obds-to-fhir/identifiers/operation-procedure-id",
        "value": "3025-484.55"
      } ],
      "status": "completed",
      "category": {
        "coding": [ {
          "system": "http://snomed.info/sct",
          "code": "387713003",
          "display": "Surgical procedure"
        } ]
      },
      "code": {
        "coding": [ {
          "system": "http://fhir.de/CodeSystem/bfarm/ops",
          "version": "2020",
          "code": "5-484.55"
        } ]
      },
      "subject": {
        "reference": "Patient/a02e16474896f1d528cac71f2c9b4c45ac3c9028e3a53fb414a1f7882991ee07"
      },
      "performedDateTime": "2020-02-01",
      "reasonReference": [ {
        "reference": "Condition/5236d8328066567b90c671091d739dc044ae00f4f9e73a5d1e6c81ed9049f335"
      } ],
      "outcome": {
        "coding": [ {
          "system": "https://www.medizininformatik-initiative.de/fhir/ext/modul-onko/CodeSystem/mii-cs-onko-residualstatus",
          "code": "R0"
        } ]
      }
    },
    "request": {
      "method": "PUT",
      "url": "Procedure/ed5b745ca4c7e7fbc6c581157a677b46028f7fbea03623571edd2440d993b760"
    }
  }, {
    "fullUrl": "Observation/fbe8bd4ee5604df9f3149618851a9935bbee3e95bc4cdeac769ab12fff143e2f",
    "resource": {
      "resourceType": "Observation",
      "id": "fbe8bd4ee5604df9f3149618851a9935bbee3e95bc4cdeac769ab12fff143e2f",
      "identifier": [ {
        "system": "https://bzkf.github.io/obds-to-fhir/identifiers/residualstatus-observation-id",
        "value": "302"
      } ],
      "status": "final",
      "code": {
        "coding": [ {
          "system": "http://loinc.org",
          "code": "84892-9"
        } ]
      },
      "subject": {
        "reference": "Patient/a02e16474896f1d528cac71f2c9b4c45ac3c9028e3a53fb414a1f7882991ee07"
      },
      "focus": [ {
        "reference": "Condition/5236d8328066567b90c671091d739dc044ae00f4f9e73a5d1e6c81ed9049f335"
      } ],
      "effectiveDateTime": "2020-02-01",
      "valueCodeableConcept": {
        "coding": [ {
          "system": "https://www.medizininformatik-initiative.de/fhir/ext/modul-onko/CodeSystem/mii-cs-onko-residualstatus",
          "code": "R2"
        } ]
      }
    },
    "request": {
      "method": "PUT",
      "url": "Observation/fbe8bd4ee5604df9f3149618851a9935bbee3e95bc4cdeac769ab12fff143e2f"
    }
  }, {
    "fullUrl": "Condition/a9b49e6ae910db956adf674338ec65dff97a2d4c07c1f0449c154b90782b49d9",
    "resource": {
      "resourceType": "Condition",
      "id": "a9b49e6ae910db956adf674338ec65dff97a2d4c07c1f0449c154b90782b49d9",
      "meta": {
        "profile": [ "https://www.medizininformatik-initiative.de/fhir/ext/modul-onko/StructureDefinition/mii-pr-onko-diagnose-primaertumor" ]
      },
      "extension": [ {
        "url": "https://www.medizininformatik-initiative.de/fhir/ext/modul-onko/StructureDefinition/mii-ex-onko-histology-morphology-behavior-icdo3",
        "valueCodeableConcept": {
          "coding": [ {
            "system": "http://terminology.hl7.org/CodeSystem/icd-o-3",
            "version": "33",
            "code": "8720/3"
          } ]
        }
      }, {
        "url": "http://hl7.org/fhir/StructureDefinition/condition-assertedDate",
        "valueDateTime": "2020-03-01"
      } ],
      "identifier": [ {
        "system": "https://bzkf.github.io/obds-to-fhir/identifiers/primaerdiagnose-id",
        "value": "103"
      } ],
      "verificationStatus": {
        "coding": [ {
          "system": "http://terminology.hl7.org/CodeSystem/condition-ver-status",
          "code": "confirmed"
        }, {
          "system": "https://www.medizininformatik-initiative.de/fhir/ext/modul-onko/CodeSystem/mii-cs-onko-primaertumor-diagnosesicherung",
          "code": "7"
        } ]
      },
      "code": {
        "coding": [ {
          "system": "http://fhir.de/CodeSystem/bfarm/icd-10-gm",
          "version": "2020",
          "code": "C43.5"
        } ]
      },
      "bodySite": [ {
        "coding": [ {
          "system": "http://terminology.hl7.org/CodeSystem/icd-o-3",
          "version": "33",
          "code": "C44.5"
        } ]
      }, {
        "coding": [ {
          "system": "https://www.medizininformatik-initiative.de/fhir/ext/modul-onko/CodeSystem/mii-cs-onko-seitenlokalisation",
          "code": "T"
        } ]
      } ],
      "subject": {
        "reference": "Patient/a02e16474896f1d528cac71f2c9b4c45ac3c9028e3a53fb414a1f7882991ee07"
      },
      "recordedDate": "2024-09-19"
    },
    "request": {
      "method": "PUT",
      "url": "Condition/a9b49e6ae910db956adf674338ec65dff97a2d4c07c1f0449c154b90782b49d9"
    }
  }, {
    "fullUrl": "Observation/9faa00bb7f854297a496a607f353b5e62d1e0b1b8f92a5d3d7abb2a0c045d23e",
    "resource": {
      "resourceType": "Observation",
      "id": "9faa00bb7f854297a496a607f353b5e62d1e0b1b8f92a5d3d7abb2a0c045d23e",
      "meta": {
        "profile": [ "https://www.medizininformatik-initiative.de/fhir/ext/modul-onko/StructureDefinition/mii-pr-onko-allgemeiner-leistungszustand-ecog" ]
      },
      "identifier": [ {
        "system": "https://bzkf.github.io/obds-to-fhir/identifiers/allgemeiner-leistungszustand-ecog-id",
        "value": "ECOG-10_3_DI_1"
      } ],
      "status": "final",
      "code": {
        "coding": [ {
          "system": "http://snomed.info/sct",
          "code": "423740007"
        } ]
      },
      "subject": {
        "reference": "Patient/a02e16474896f1d528cac71f2c9b4c45ac3c9028e3a53fb414a1f7882991ee07"
      },
      "focus": [ {
        "reference": "Condition/a9b49e6ae910db956adf674338ec65dff97a2d4c07c1f0449c154b90782b49d9"
      } ],
      "effectiveDateTime": "2020-03-01",
      "valueCodeableConcept": {
        "coding": [ {
          "system": "https://www.medizininformatik-initiative.de/fhir/ext/modul-onko/CodeSystem/mii-cs-onko-allgemeiner-leistungszustand-ecog",
          "code": "0",
          "display": "Normale, uneingeschränkte Aktivität wie vor der Erkrankung (90 - 100 % nach Karnofsky)"
        } ]
      }
    },
    "request": {
      "method": "PUT",
      "url": "Observation/9faa00bb7f854297a496a607f353b5e62d1e0b1b8f92a5d3d7abb2a0c045d23e"
    }
  }, {
    "fullUrl": "Procedure/1b566748e4b3f7c304f866b98ba11696eb2cb16ee4f8627bb187ecbcee4b46b0",
    "resource": {
      "resourceType": "Procedure",
      "id": "1b566748e4b3f7c304f866b98ba11696eb2cb16ee4f8627bb187ecbcee4b46b0",
      "meta": {
        "profile": [ "https://www.medizininformatik-initiative.de/fhir/ext/modul-onko/StructureDefinition/mii-pr-onko-operation" ]
      },
      "extension": [ {
        "url": "https://www.medizininformatik-initiative.de/fhir/ext/modul-onko/StructureDefinition/mii-ex-onko-operation-intention",
        "valueCodeableConcept": {
          "coding": [ {
            "system": "https://www.medizininformatik-initiative.de/fhir/ext/modul-onko/CodeSystem/mii-cs-onko-intention",
            "code": "K"
          } ]
        }
      } ],
      "identifier": [ {
        "system": "https://bzkf.github.io/obds-to-fhir/identifiers/operation-procedure-id",
        "value": "3035-894.1"
      } ],
      "status": "completed",
      "category": {
        "coding": [ {
          "system": "http://snomed.info/sct",
          "code": "387713003",
          "display": "Surgical procedure"
        } ]
      },
      "code": {
        "coding": [ {
          "system": "http://fhir.de/CodeSystem/bfarm/ops",
          "version": "2021",
          "code": "5-894.1"
        } ]
      },
      "subject": {
        "reference": "Patient/a02e16474896f1d528cac71f2c9b4c45ac3c9028e3a53fb414a1f7882991ee07"
      },
      "performedDateTime": "2021-12-20",
      "reasonReference": [ {
        "reference": "Condition/a9b49e6ae910db956adf674338ec65dff97a2d4c07c1f0449c154b90782b49d9"
      } ],
      "outcome": {
        "coding": [ {
          "system": "https://www.medizininformatik-initiative.de/fhir/ext/modul-onko/CodeSystem/mii-cs-onko-residualstatus",
          "code": "R0"
        } ]
      }
    },
    "request": {
      "method": "PUT",
      "url": "Procedure/1b566748e4b3f7c304f866b98ba11696eb2cb16ee4f8627bb187ecbcee4b46b0"
    }
  }, {
    "fullUrl": "Observation/820a4d15bc65ede836e0b68922b75855e9ab63f2ce4b33c39e8796096107b357",
    "resource": {
      "resourceType": "Observation",
      "id": "820a4d15bc65ede836e0b68922b75855e9ab63f2ce4b33c39e8796096107b357",
      "identifier": [ {
        "system": "https://bzkf.github.io/obds-to-fhir/identifiers/residualstatus-observation-id",
        "value": "303"
      } ],
      "status": "final",
      "code": {
        "coding": [ {
          "system": "http://loinc.org",
          "code": "84892-9"
        } ]
      },
      "subject": {
        "reference": "Patient/a02e16474896f1d528cac71f2c9b4c45ac3c9028e3a53fb414a1f7882991ee07"
      },
      "focus": [ {
        "reference": "Condition/a9b49e6ae910db956adf674338ec65dff97a2d4c07c1f0449c154b90782b49d9"
      } ],
      "effectiveDateTime": "2021-12-20",
      "valueCodeableConcept": {
        "coding": [ {
          "system": "https://www.medizininformatik-initiative.de/fhir/ext/modul-onko/CodeSystem/mii-cs-onko-residualstatus",
          "code": "R2"
        } ]
      }
    },
    "request": {
      "method": "PUT",
      "url": "Observation/820a4d15bc65ede836e0b68922b75855e9ab63f2ce4b33c39e8796096107b357"
    }
  } ]
}