{
  "resourceType": "Bundle",
  "id": "5098a39800d97f3939da3ee42943b863a227d051c05789f223880279dc077203",
  "type": "transaction",
  "entry": [ {
    "fullUrl": "Patient/5098a39800d97f3939da3ee42943b863a227d051c05789f223880279dc077203",
    "resource": {
      "resourceType": "Patient",
      "id": "5098a39800d97f3939da3ee42943b863a227d051c05789f223880279dc077203",
      "meta": {
        "profile": [ "https://www.medizininformatik-initiative.de/fhir/core/modul-person/StructureDefinition/PatientPseudonymisiert" ]
      },
      "identifier": [ {
        "type": {
          "coding": [ {
            "system": "http://terminology.hl7.org/CodeSystem/v2-0203",
            "code": "MR",
            "display": "Medical record number"
          }, {
            "system": "http://terminology.hl7.org/CodeSystem/v3-ObservationValue",
            "code": "PSEUDED",
            "display": "pseudonymized"
          } ]
        },
        "system": "https://bzkf.github.io/obds-to-fhir/identifiers/patient-id",
        "value": "17"
      } ],
      "gender": "female",
      "birthDate": "1969-06-01",
      "deceasedDateTime": "2023-09-01",
      "address": [ {
        "type": "both",
        "postalCode": "35287",
        "country": "DE"
      } ]
    },
    "request": {
      "method": "PUT",
      "url": "Patient/5098a39800d97f3939da3ee42943b863a227d051c05789f223880279dc077203"
    }
  }, {
    "fullUrl": "Condition/9b5cabc4facc22d2681d7b63c3986487f3646a7ad8c10f95d96db8ea5fe29c33",
    "resource": {
      "resourceType": "Condition",
      "id": "9b5cabc4facc22d2681d7b63c3986487f3646a7ad8c10f95d96db8ea5fe29c33",
      "meta": {
        "profile": [ "https://www.medizininformatik-initiative.de/fhir/ext/modul-onko/StructureDefinition/mii-pr-onko-diagnose-primaertumor" ]
      },
      "extension": [ {
        "url": "https://www.medizininformatik-initiative.de/fhir/ext/modul-onko/StructureDefinition/mii-ex-onko-histology-morphology-behavior-icdo3",
        "valueCodeableConcept": {
          "coding": [ {
            "system": "http://terminology.hl7.org/CodeSystem/icd-o-3",
            "version": "31",
            "code": "8085/3"
          } ]
        }
      }, {
        "url": "http://hl7.org/fhir/StructureDefinition/condition-assertedDate",
        "valueDateTime": "2018-02-01"
      } ],
      "identifier": [ {
        "system": "https://bzkf.github.io/obds-to-fhir/identifiers/primaerdiagnose-id",
        "value": "171"
      } ],
      "verificationStatus": {
        "coding": [ {
          "system": "http://terminology.hl7.org/CodeSystem/condition-ver-status",
          "code": "confirmed"
        }, {
          "system": "https://www.medizininformatik-initiative.de/fhir/ext/modul-onko/CodeSystem/mii-cs-onko-primaertumor-diagnosesicherung",
          "code": "7"
        } ]
      },
      "code": {
        "coding": [ {
          "system": "http://fhir.de/CodeSystem/bfarm/icd-10-gm",
          "version": "2018",
          "code": "C53.9"
        } ]
      },
      "bodySite": [ {
        "coding": [ {
          "system": "http://terminology.hl7.org/CodeSystem/icd-o-3",
          "version": "33",
          "code": "C53.9"
        } ]
      }, {
        "coding": [ {
          "system": "https://www.medizininformatik-initiative.de/fhir/ext/modul-onko/CodeSystem/mii-cs-onko-seitenlokalisation",
          "code": "T"
        } ]
      } ],
      "subject": {
        "reference": "Patient/5098a39800d97f3939da3ee42943b863a227d051c05789f223880279dc077203"
      },
      "recordedDate": "2024-06-14"
    },
    "request": {
      "method": "PUT",
      "url": "Condition/9b5cabc4facc22d2681d7b63c3986487f3646a7ad8c10f95d96db8ea5fe29c33"
    }
  }, {
    "fullUrl": "Observation/d8da9e230494224c1f567f73dd9ea9fddfb8a3115276d5f6205416ed1ccc4193",
    "resource": {
      "resourceType": "Observation",
      "id": "d8da9e230494224c1f567f73dd9ea9fddfb8a3115276d5f6205416ed1ccc4193",
      "meta": {
        "profile": [ "https://www.medizininformatik-initiative.de/fhir/ext/modul-onko/StructureDefinition/mii-pr-onko-allgemeiner-leistungszustand-ecog" ]
      },
      "identifier": [ {
        "system": "https://bzkf.github.io/obds-to-fhir/identifiers/allgemeiner-leistungszustand-ecog-id",
        "value": "ECOG-DIA_17101"
      } ],
      "status": "final",
      "code": {
        "coding": [ {
          "system": "http://snomed.info/sct",
          "code": "423740007"
        } ]
      },
      "subject": {
        "reference": "Patient/5098a39800d97f3939da3ee42943b863a227d051c05789f223880279dc077203"
      },
      "focus": [ {
        "reference": "Condition/9b5cabc4facc22d2681d7b63c3986487f3646a7ad8c10f95d96db8ea5fe29c33"
      } ],
      "effectiveDateTime": "2018-02-01",
      "valueCodeableConcept": {
        "coding": [ {
          "system": "https://www.medizininformatik-initiative.de/fhir/ext/modul-onko/CodeSystem/mii-cs-onko-allgemeiner-leistungszustand-ecog",
          "code": "0",
          "display": "Normale, uneingeschränkte Aktivität wie vor der Erkrankung (90 - 100 % nach Karnofsky)"
        } ]
      }
    },
    "request": {
      "method": "PUT",
      "url": "Observation/d8da9e230494224c1f567f73dd9ea9fddfb8a3115276d5f6205416ed1ccc4193"
    }
  }, {
    "fullUrl": "Procedure/398852aa92c6b718005eb2355a76581e7069f8c7afebff30ec6e722b10574966",
    "resource": {
      "resourceType": "Procedure",
      "id": "398852aa92c6b718005eb2355a76581e7069f8c7afebff30ec6e722b10574966",
      "meta": {
        "profile": [ "https://www.medizininformatik-initiative.de/fhir/ext/modul-onko/StructureDefinition/mii-pr-onko-operation" ]
      },
      "extension": [ {
        "url": "https://www.medizininformatik-initiative.de/fhir/ext/modul-onko/StructureDefinition/mii-ex-onko-operation-intention",
        "valueCodeableConcept": {
          "coding": [ {
            "system": "https://www.medizininformatik-initiative.de/fhir/ext/modul-onko/CodeSystem/mii-cs-onko-intention",
            "code": "K"
          } ]
        }
      } ],
      "identifier": [ {
        "system": "https://bzkf.github.io/obds-to-fhir/identifiers/operation-procedure-id",
        "value": "1685-672.0"
      } ],
      "status": "completed",
      "category": {
        "coding": [ {
          "system": "http://snomed.info/sct",
          "code": "387713003",
          "display": "Surgical procedure"
        } ]
      },
      "code": {
        "coding": [ {
          "system": "http://fhir.de/CodeSystem/bfarm/ops",
          "version": "2020",
          "code": "5-672.0"
        } ]
      },
      "subject": {
        "reference": "Patient/5098a39800d97f3939da3ee42943b863a227d051c05789f223880279dc077203"
      },
      "performedDateTime": "2020-03-01",
      "reasonReference": [ {
        "reference": "Condition/9b5cabc4facc22d2681d7b63c3986487f3646a7ad8c10f95d96db8ea5fe29c33"
      } ]
    },
    "request": {
      "method": "PUT",
      "url": "Procedure/398852aa92c6b718005eb2355a76581e7069f8c7afebff30ec6e722b10574966"
    }
  }, {
    "fullUrl": "Procedure/097d5ab597fa27e4ce45bb8930a97a8b1bafd93273dc2f41fb5ac7a3656337ec",
    "resource": {
      "resourceType": "Procedure",
      "id": "097d5ab597fa27e4ce45bb8930a97a8b1bafd93273dc2f41fb5ac7a3656337ec",
      "meta": {
        "profile": [ "https://www.medizininformatik-initiative.de/fhir/ext/modul-onko/StructureDefinition/mii-pr-onko-systemische-therapie" ]
      },
      "extension": [ {
        "url": "https://www.medizininformatik-initiative.de/fhir/ext/modul-onko/StructureDefinition/mii-ex-onko-systemische-therapie-intention",
        "valueCodeableConcept": {
          "coding": [ {
            "system": "https://www.medizininformatik-initiative.de/fhir/ext/modul-onko/CodeSystem/mii-cs-onko-intention",
            "code": "K"
          } ]
        }
      } ],
      "identifier": [ {
        "system": "https://bzkf.github.io/obds-to-fhir/identifiers/systemische-therapie-procedure-id",
        "value": "70_1_IN_1"
      } ],
      "status": "completed",
      "category": {
        "coding": [ {
          "system": "http://snomed.info/sct",
          "_code": {
            "extension": [ {
              "url": "http://hl7.org/fhir/StructureDefinition/data-absent-reason",
              "valueCode": "unknown"
            } ]
          }
        } ]
      },
      "code": {
        "coding": [ {
          "system": "http://fhir.de/CodeSystem/bfarm/ops",
          "_code": {
            "extension": [ {
              "url": "http://hl7.org/fhir/StructureDefinition/data-absent-reason",
              "valueCode": "unknown"
            } ]
          }
        }, {
          "system": "https://www.medizininformatik-initiative.de/fhir/ext/modul-onko/CodeSystem/mii-cs-onko-therapie-typ",
          "code": "CH"
        } ]
      },
      "subject": {
        "reference": "Patient/5098a39800d97f3939da3ee42943b863a227d051c05789f223880279dc077203"
      },
      "performedPeriod": {
        "start": "2018-04-07",
        "end": "2018-05-15"
      },
      "outcome": {
        "coding": [ {
          "system": "https://www.medizininformatik-initiative.de/fhir/ext/modul-onko/CodeSystem/mii-cs-therapie-grund-ende",
          "code": "A"
        } ]
      }
    },
    "request": {
      "method": "PUT",
      "url": "Procedure/097d5ab597fa27e4ce45bb8930a97a8b1bafd93273dc2f41fb5ac7a3656337ec"
    }
  }, {
    "fullUrl": "MedicationStatement/17ba605ff2b4403d247bfd9625b84b5df622858f3fc73252bb4304e9ce6af6a4",
    "resource": {
      "resourceType": "MedicationStatement",
      "id": "17ba605ff2b4403d247bfd9625b84b5df622858f3fc73252bb4304e9ce6af6a4",
      "meta": {
        "profile": [ "https://www.medizininformatik-initiative.de/fhir/core/modul-medikation/StructureDefinition/MedicationStatement" ]
      },
      "identifier": [ {
        "system": "https://bzkf.github.io/obds-to-fhir/identifiers/systemische-therapie-medication-statement-id",
        "value": "70_1_IN_1_Cisplatin_bb7f"
      } ],
      "partOf": [ {
        "reference": "Procedure/097d5ab597fa27e4ce45bb8930a97a8b1bafd93273dc2f41fb5ac7a3656337ec"
      } ],
      "status": "completed",
      "medicationCodeableConcept": {
        "text": "Cisplatin"
      },
      "subject": {
        "reference": "Patient/5098a39800d97f3939da3ee42943b863a227d051c05789f223880279dc077203"
      },
      "effectivePeriod": {
        "start": "2018-04-07",
        "end": "2018-05-15"
      }
    },
    "request": {
      "method": "PUT",
      "url": "MedicationStatement/17ba605ff2b4403d247bfd9625b84b5df622858f3fc73252bb4304e9ce6af6a4"
    }
  }, {
    "fullUrl": "MedicationStatement/9e18c5f8cfb935dbfd738d461861b12ffd9472f9bd5fa09b4e097bc26fd86060",
    "resource": {
      "resourceType": "MedicationStatement",
      "id": "9e18c5f8cfb935dbfd738d461861b12ffd9472f9bd5fa09b4e097bc26fd86060",
      "meta": {
        "profile": [ "https://www.medizininformatik-initiative.de/fhir/core/modul-medikation/StructureDefinition/MedicationStatement" ]
      },
      "identifier": [ {
        "system": "https://bzkf.github.io/obds-to-fhir/identifiers/systemische-therapie-medication-statement-id",
        "value": "70_1_IN_1_Etoposid_bcc5"
      } ],
      "partOf": [ {
        "reference": "Procedure/097d5ab597fa27e4ce45bb8930a97a8b1bafd93273dc2f41fb5ac7a3656337ec"
      } ],
      "status": "completed",
      "medicationCodeableConcept": {
        "text": "Etoposid"
      },
      "subject": {
        "reference": "Patient/5098a39800d97f3939da3ee42943b863a227d051c05789f223880279dc077203"
      },
      "effectivePeriod": {
        "start": "2018-04-07",
        "end": "2018-05-15"
      }
    },
    "request": {
      "method": "PUT",
      "url": "MedicationStatement/9e18c5f8cfb935dbfd738d461861b12ffd9472f9bd5fa09b4e097bc26fd86060"
    }
  }, {
    "fullUrl": "Procedure/ccdd51a21130b11d65b4e5e496e12de49fb70218f9c355d487f9b453a57a7ec0",
    "resource": {
      "resourceType": "Procedure",
      "id": "ccdd51a21130b11d65b4e5e496e12de49fb70218f9c355d487f9b453a57a7ec0",
      "meta": {
        "profile": [ "https://www.medizininformatik-initiative.de/fhir/ext/modul-onko/StructureDefinition/mii-pr-onko-systemische-therapie" ]
      },
      "extension": [ {
        "url": "https://www.medizininformatik-initiative.de/fhir/ext/modul-onko/StructureDefinition/mii-ex-onko-systemische-therapie-intention",
        "valueCodeableConcept": {
          "coding": [ {
            "system": "https://www.medizininformatik-initiative.de/fhir/ext/modul-onko/CodeSystem/mii-cs-onko-intention",
            "code": "K"
          } ]
        }
      } ],
      "identifier": [ {
        "system": "https://bzkf.github.io/obds-to-fhir/identifiers/systemische-therapie-procedure-id",
        "value": "17_1_IN_2"
      } ],
      "status": "in-progress",
      "category": {
        "coding": [ {
          "system": "http://snomed.info/sct",
          "_code": {
            "extension": [ {
              "url": "http://hl7.org/fhir/StructureDefinition/data-absent-reason",
              "valueCode": "unknown"
            } ]
          }
        } ]
      },
      "code": {
        "coding": [ {
          "system": "http://fhir.de/CodeSystem/bfarm/ops",
          "_code": {
            "extension": [ {
              "url": "http://hl7.org/fhir/StructureDefinition/data-absent-reason",
              "valueCode": "unknown"
            } ]
          }
        }, {
          "system": "https://www.medizininformatik-initiative.de/fhir/ext/modul-onko/CodeSystem/mii-cs-onko-therapie-typ",
          "code": "CH"
        } ]
      },
      "subject": {
        "reference": "Patient/5098a39800d97f3939da3ee42943b863a227d051c05789f223880279dc077203"
      },
      "performedPeriod": {
        "start": "2018-06-15"
      }
    },
    "request": {
      "method": "PUT",
      "url": "Procedure/ccdd51a21130b11d65b4e5e496e12de49fb70218f9c355d487f9b453a57a7ec0"
    }
  }, {
    "fullUrl": "MedicationStatement/870ef1978aba599fbfcb949ae39cea4bdeaf7961d142064b11f482080ded9a78",
    "resource": {
      "resourceType": "MedicationStatement",
      "id": "870ef1978aba599fbfcb949ae39cea4bdeaf7961d142064b11f482080ded9a78",
      "meta": {
        "profile": [ "https://www.medizininformatik-initiative.de/fhir/core/modul-medikation/StructureDefinition/MedicationStatement" ]
      },
      "identifier": [ {
        "system": "https://bzkf.github.io/obds-to-fhir/identifiers/systemische-therapie-medication-statement-id",
        "value": "17_1_IN_2_Carboplatin_1f2d"
      } ],
      "partOf": [ {
        "reference": "Procedure/ccdd51a21130b11d65b4e5e496e12de49fb70218f9c355d487f9b453a57a7ec0"
      } ],
      "status": "active",
      "medicationCodeableConcept": {
        "text": "Carboplatin"
      },
      "subject": {
        "reference": "Patient/5098a39800d97f3939da3ee42943b863a227d051c05789f223880279dc077203"
      },
      "effectivePeriod": {
        "start": "2018-06-15"
      }
    },
    "request": {
      "method": "PUT",
      "url": "MedicationStatement/870ef1978aba599fbfcb949ae39cea4bdeaf7961d142064b11f482080ded9a78"
    }
  }, {
    "fullUrl": "MedicationStatement/a4445c220a40c4227211dc0210f96be8fbfdd3080a0b23f258589e4b376dd8de",
    "resource": {
      "resourceType": "MedicationStatement",
      "id": "a4445c220a40c4227211dc0210f96be8fbfdd3080a0b23f258589e4b376dd8de",
      "meta": {
        "profile": [ "https://www.medizininformatik-initiative.de/fhir/core/modul-medikation/StructureDefinition/MedicationStatement" ]
      },
      "identifier": [ {
        "system": "https://bzkf.github.io/obds-to-fhir/identifiers/systemische-therapie-medication-statement-id",
        "value": "17_1_IN_2_Etoposid_bcc5"
      } ],
      "partOf": [ {
        "reference": "Procedure/ccdd51a21130b11d65b4e5e496e12de49fb70218f9c355d487f9b453a57a7ec0"
      } ],
      "status": "active",
      "medicationCodeableConcept": {
        "text": "Etoposid"
      },
      "subject": {
        "reference": "Patient/5098a39800d97f3939da3ee42943b863a227d051c05789f223880279dc077203"
      },
      "effectivePeriod": {
        "start": "2018-06-15"
      }
    },
    "request": {
      "method": "PUT",
      "url": "MedicationStatement/a4445c220a40c4227211dc0210f96be8fbfdd3080a0b23f258589e4b376dd8de"
    }
  }, {
    "fullUrl": "Observation/855d162733724763587320167d7b27cd6d2afa3d2c1d60b3e2b4b1fa08cb9695",
    "resource": {
      "resourceType": "Observation",
      "id": "855d162733724763587320167d7b27cd6d2afa3d2c1d60b3e2b4b1fa08cb9695",
      "meta": {
        "profile": [ "https://www.medizininformatik-initiative.de/fhir/ext/modul-onko/StructureDefinition/mii-pr-onko-tod" ]
      },
      "identifier": [ {
        "system": "https://bzkf.github.io/obds-to-fhir/identifiers/tod-observation-id",
        "value": "67_T98.3"
      } ],
      "status": "final",
      "code": {
        "coding": [ {
          "system": "http://snomed.info/sct",
          "code": "184305005"
        } ]
      },
      "subject": {
        "reference": "Patient/5098a39800d97f3939da3ee42943b863a227d051c05789f223880279dc077203"
      },
      "focus": [ {
        "reference": "Condition/9b5cabc4facc22d2681d7b63c3986487f3646a7ad8c10f95d96db8ea5fe29c33"
      } ],
      "effectiveDateTime": "2023-09-01",
      "valueCodeableConcept": {
        "coding": [ {
          "system": "http://fhir.de/CodeSystem/bfarm/icd-10-gm",
          "version": "2020",
          "code": "T98.3"
        } ]
      },
      "interpretation": [ {
        "coding": [ {
          "system": "https://www.medizininformatik-initiative.de/fhir/ext/modul-onko/CodeSystem/mii-cs-onko-tod",
          "code": "N"
        } ]
      } ]
    },
    "request": {
      "method": "PUT",
      "url": "Observation/855d162733724763587320167d7b27cd6d2afa3d2c1d60b3e2b4b1fa08cb9695"
    }
  } ]
}