{
  "resourceType": "Bundle",
  "id": "23283daf4d699cc4b3e9d01cd4ce1344cd94f9f9769dfd88da68b2b696332d48",
  "type": "transaction",
  "entry": [ {
    "fullUrl": "Patient/23283daf4d699cc4b3e9d01cd4ce1344cd94f9f9769dfd88da68b2b696332d48",
    "resource": {
      "resourceType": "Patient",
      "id": "23283daf4d699cc4b3e9d01cd4ce1344cd94f9f9769dfd88da68b2b696332d48",
      "meta": {
        "profile": [ "https://www.medizininformatik-initiative.de/fhir/core/modul-person/StructureDefinition/PatientPseudonymisiert" ]
      },
      "identifier": [ {
        "type": {
          "coding": [ {
            "system": "http://terminology.hl7.org/CodeSystem/v2-0203",
            "code": "MR",
            "display": "Medical record number"
          }, {
            "system": "http://terminology.hl7.org/CodeSystem/v3-ObservationValue",
            "code": "PSEUDED",
            "display": "pseudonymized"
          } ]
        },
        "system": "https://bzkf.github.io/obds-to-fhir/identifiers/patient-id",
        "value": "80"
      } ],
      "gender": "male",
      "birthDate": "1952-03-05",
      "address": [ {
        "type": "both",
        "postalCode": "90402",
        "_country": {
          "extension": [ {
            "url": "http://hl7.org/fhir/StructureDefinition/data-absent-reason",
            "valueCode": "unknown"
          } ]
        }
      } ]
    },
    "request": {
      "method": "PUT",
      "url": "Patient/23283daf4d699cc4b3e9d01cd4ce1344cd94f9f9769dfd88da68b2b696332d48"
    }
  }, {
    "fullUrl": "Procedure/8659f4d846974b09913924a61cb54295e498ab8d1ea36861883c13c3b291c6c1",
    "resource": {
      "resourceType": "Procedure",
      "id": "8659f4d846974b09913924a61cb54295e498ab8d1ea36861883c13c3b291c6c1",
      "meta": {
        "profile": [ "https://www.medizininformatik-initiative.de/fhir/ext/modul-onko/StructureDefinition/mii-pr-onko-strahlentherapie" ]
      },
      "extension": [ {
        "url": "https://www.medizininformatik-initiative.de/fhir/ext/modul-onko/StructureDefinition/mii-ex-onko-strahlentherapie-intention",
        "valueCodeableConcept": {
          "coding": [ {
            "system": "https://www.medizininformatik-initiative.de/fhir/ext/modul-onko/CodeSystem/mii-cs-onko-intention",
            "code": "P"
          } ]
        }
      }, {
        "url": "https://www.medizininformatik-initiative.de/fhir/ext/modul-onko/StructureDefinition/mii-ex-onko-strahlentherapie-bestrahlung",
        "extension": [ {
          "url": "Applikationsart",
          "valueCodeableConcept": {
            "coding": [ {
              "system": "https://www.medizininformatik-initiative.de/fhir/ext/modul-onko/CodeSystem/mii-cs-onko-strahlentherapie-applikationsart",
              "code": "P-ST"
            } ]
          }
        }, {
          "url": "Strahlenart",
          "valueCodeableConcept": {
            "coding": [ {
              "system": "https://www.medizininformatik-initiative.de/fhir/ext/modul-onko/CodeSystem/mii-cs-onko-strahlentherapie-strahlenart",
              "code": "UH"
            } ]
          }
        }, {
          "url": "Zielgebiet",
          "valueCodeableConcept": {
            "coding": [ {
              "system": "https://www.medizininformatik-initiative.de/fhir/ext/modul-onko/CodeSystem/mii-cs-onko-strahlentherapie-zielgebiet",
              "code": "3.4"
            } ]
          }
        } ]
      } ],
      "identifier": [ {
        "system": "https://bzkf.github.io/obds-to-fhir/identifiers/strahlentherapie-procedure-id",
        "value": "80_1_RAD_1"
      } ],
      "status": "in-progress",
      "category": {
        "coding": [ {
          "system": "http://snomed.info/sct",
          "code": "277132007",
          "display": "Therapeutic procedure"
        } ]
      },
      "code": {
        "coding": [ {
          "system": "http://fhir.de/CodeSystem/bfarm/ops",
          "_code": {
            "extension": [ {
              "url": "http://hl7.org/fhir/StructureDefinition/data-absent-reason",
              "valueCode": "unknown"
            } ]
          }
        } ]
      },
      "subject": {
        "reference": "Patient/23283daf4d699cc4b3e9d01cd4ce1344cd94f9f9769dfd88da68b2b696332d48"
      },
      "performedPeriod": {
        "_start": {
          "extension": [ {
            "url": "http://hl7.org/fhir/StructureDefinition/data-absent-reason",
            "valueCode": "unknown"
          } ]
        }
      }
    },
    "request": {
      "method": "PUT",
      "url": "Procedure/8659f4d846974b09913924a61cb54295e498ab8d1ea36861883c13c3b291c6c1"
    }
  }, {
    "fullUrl": "Procedure/177d21a6e24969e5a639921f0688163978547b64fd65195940969b759984b142",
    "resource": {
      "resourceType": "Procedure",
      "id": "177d21a6e24969e5a639921f0688163978547b64fd65195940969b759984b142",
      "meta": {
        "profile": [ "https://www.medizininformatik-initiative.de/fhir/ext/modul-onko/StructureDefinition/mii-pr-onko-systemische-therapie" ]
      },
      "extension": [ {
        "url": "https://www.medizininformatik-initiative.de/fhir/ext/modul-onko/StructureDefinition/mii-ex-onko-systemische-therapie-intention",
        "valueCodeableConcept": {
          "coding": [ {
            "system": "https://www.medizininformatik-initiative.de/fhir/ext/modul-onko/CodeSystem/mii-cs-onko-intention",
            "code": "K"
          } ]
        }
      } ],
      "identifier": [ {
        "system": "https://bzkf.github.io/obds-to-fhir/identifiers/systemische-therapie-procedure-id",
        "value": "80_1_IN_1"
      } ],
      "status": "in-progress",
      "category": {
        "coding": [ {
          "system": "http://snomed.info/sct",
          "code": "18629005"
        } ]
      },
      "code": {
        "coding": [ {
          "system": "http://fhir.de/CodeSystem/bfarm/ops",
          "code": "6-00"
        }, {
          "system": "https://www.medizininformatik-initiative.de/fhir/ext/modul-onko/CodeSystem/mii-cs-onko-therapie-typ",
          "code": "HO"
        } ]
      },
      "subject": {
        "reference": "Patient/23283daf4d699cc4b3e9d01cd4ce1344cd94f9f9769dfd88da68b2b696332d48"
      },
      "performedPeriod": {
        "start": "2020-05-10"
      }
    },
    "request": {
      "method": "PUT",
      "url": "Procedure/177d21a6e24969e5a639921f0688163978547b64fd65195940969b759984b142"
    }
  }, {
    "fullUrl": "MedicationStatement/5e9ddff7fddf855fe13360dc82e163caf3b4fe1c82bef38b6fbada420bc06cbb",
    "resource": {
      "resourceType": "MedicationStatement",
      "id": "5e9ddff7fddf855fe13360dc82e163caf3b4fe1c82bef38b6fbada420bc06cbb",
      "meta": {
        "profile": [ "https://www.medizininformatik-initiative.de/fhir/core/modul-medikation/StructureDefinition/MedicationStatement" ]
      },
      "identifier": [ {
        "system": "https://bzkf.github.io/obds-to-fhir/identifiers/systemische-therapie-medication-statement-id",
        "value": "80_1_IN_1_Buserelin_b426"
      } ],
      "partOf": [ {
        "reference": "Procedure/177d21a6e24969e5a639921f0688163978547b64fd65195940969b759984b142"
      } ],
      "status": "active",
      "medicationCodeableConcept": {
        "text": "Buserelin"
      },
      "subject": {
        "reference": "Patient/23283daf4d699cc4b3e9d01cd4ce1344cd94f9f9769dfd88da68b2b696332d48"
      },
      "effectivePeriod": {
        "start": "2020-05-10"
      }
    },
    "request": {
      "method": "PUT",
      "url": "MedicationStatement/5e9ddff7fddf855fe13360dc82e163caf3b4fe1c82bef38b6fbada420bc06cbb"
    }
  }, {
    "fullUrl": "Procedure/01fe10e7214221155d118ef5991a5666bad77fad0c85fa0f60678057e0ae1fb9",
    "resource": {
      "resourceType": "Procedure",
      "id": "01fe10e7214221155d118ef5991a5666bad77fad0c85fa0f60678057e0ae1fb9",
      "meta": {
        "profile": [ "https://www.medizininformatik-initiative.de/fhir/ext/modul-onko/StructureDefinition/mii-pr-onko-operation" ]
      },
      "extension": [ {
        "url": "https://www.medizininformatik-initiative.de/fhir/ext/modul-onko/StructureDefinition/mii-ex-onko-operation-intention",
        "valueCodeableConcept": {
          "coding": [ {
            "system": "https://www.medizininformatik-initiative.de/fhir/ext/modul-onko/CodeSystem/mii-cs-onko-intention",
            "code": "K"
          } ]
        }
      } ],
      "identifier": [ {
        "system": "https://bzkf.github.io/obds-to-fhir/identifiers/operation-procedure-id",
        "value": "1475-604.12"
      } ],
      "status": "completed",
      "category": {
        "coding": [ {
          "system": "http://snomed.info/sct",
          "code": "387713003",
          "display": "Surgical procedure"
        } ]
      },
      "code": {
        "coding": [ {
          "system": "http://fhir.de/CodeSystem/bfarm/ops",
          "version": "2022",
          "code": "5-604.12"
        } ]
      },
      "subject": {
        "reference": "Patient/23283daf4d699cc4b3e9d01cd4ce1344cd94f9f9769dfd88da68b2b696332d48"
      },
      "performedDateTime": "2020-06-01",
      "reasonReference": [ {
        "reference": "Condition/864086c778055cfdcf52915c303af7bfa4941ae6f56fb931849319046b09108d"
      } ],
      "outcome": {
        "coding": [ {
          "system": "https://www.medizininformatik-initiative.de/fhir/ext/modul-onko/CodeSystem/mii-cs-onko-residualstatus",
          "code": "R0"
        } ]
      }
    },
    "request": {
      "method": "PUT",
      "url": "Procedure/01fe10e7214221155d118ef5991a5666bad77fad0c85fa0f60678057e0ae1fb9"
    }
  }, {
    "fullUrl": "Observation/a042c87268385397f8c5fcb146773ffdaebb26e5accbb5a16823e0c78be0c63f",
    "resource": {
      "resourceType": "Observation",
      "id": "a042c87268385397f8c5fcb146773ffdaebb26e5accbb5a16823e0c78be0c63f",
      "identifier": [ {
        "system": "https://bzkf.github.io/obds-to-fhir/identifiers/residualstatus-observation-id",
        "value": "147"
      } ],
      "status": "final",
      "code": {
        "coding": [ {
          "system": "http://loinc.org",
          "code": "84892-9"
        } ]
      },
      "subject": {
        "reference": "Patient/23283daf4d699cc4b3e9d01cd4ce1344cd94f9f9769dfd88da68b2b696332d48"
      },
      "focus": [ {
        "reference": "Condition/864086c778055cfdcf52915c303af7bfa4941ae6f56fb931849319046b09108d"
      } ],
      "effectiveDateTime": "2020-06-01",
      "valueCodeableConcept": {
        "coding": [ {
          "system": "https://www.medizininformatik-initiative.de/fhir/ext/modul-onko/CodeSystem/mii-cs-onko-residualstatus",
          "code": "R0"
        } ]
      }
    },
    "request": {
      "method": "PUT",
      "url": "Observation/a042c87268385397f8c5fcb146773ffdaebb26e5accbb5a16823e0c78be0c63f"
    }
  }, {
    "fullUrl": "Specimen/260ee9c6e60cb4b3bfc1973fd3a671e66b0f16e015502fab46b91ba79e08bf80",
    "resource": {
      "resourceType": "Specimen",
      "id": "260ee9c6e60cb4b3bfc1973fd3a671e66b0f16e015502fab46b91ba79e08bf80",
      "meta": {
        "profile": [ "https://www.medizininformatik-initiative.de/fhir/ext/modul-onko/StructureDefinition/mii-pr-onko-specimen" ]
      },
      "identifier": [ {
        "system": "https://bzkf.github.io/obds-to-fhir/identifiers/specimen-id",
        "value": "274"
      } ],
      "accessionIdentifier": {
        "value": "H16789/2020"
      },
      "subject": {
        "reference": "Patient/23283daf4d699cc4b3e9d01cd4ce1344cd94f9f9769dfd88da68b2b696332d48"
      },
      "collection": {
        "collectedDateTime": "2020-06-01"
      }
    },
    "request": {
      "method": "PUT",
      "url": "Specimen/260ee9c6e60cb4b3bfc1973fd3a671e66b0f16e015502fab46b91ba79e08bf80"
    }
  }, {
    "fullUrl": "Observation/655a283056c87335e906061982b9fdd86146aa9dd0fd9cdaa4ffd7da944ae368",
    "resource": {
      "resourceType": "Observation",
      "id": "655a283056c87335e906061982b9fdd86146aa9dd0fd9cdaa4ffd7da944ae368",
      "meta": {
        "profile": [ "https://www.medizininformatik-initiative.de/fhir/ext/modul-onko/StructureDefinition/mii-pr-onko-histologie-icdo3" ]
      },
      "identifier": [ {
        "system": "https://bzkf.github.io/obds-to-fhir/identifiers/observation-histologie-id",
        "value": "274_ICDO3_8140/3"
      } ],
      "status": "final",
      "code": {
        "coding": [ {
          "system": "http://loinc.org",
          "code": "59847-4"
        } ]
      },
      "subject": {
        "reference": "Patient/23283daf4d699cc4b3e9d01cd4ce1344cd94f9f9769dfd88da68b2b696332d48"
      },
      "focus": [ {
        "reference": "Condition/864086c778055cfdcf52915c303af7bfa4941ae6f56fb931849319046b09108d"
      } ],
      "effectiveDateTime": "2020-06-01",
      "valueCodeableConcept": {
        "coding": [ {
          "system": "http://terminology.hl7.org/CodeSystem/icd-o-3",
          "version": "31",
          "code": "8140/3"
        } ],
        "text": "Adenokarzinom o.n.A."
      },
      "specimen": {
        "reference": "Specimen/260ee9c6e60cb4b3bfc1973fd3a671e66b0f16e015502fab46b91ba79e08bf80"
      }
    },
    "request": {
      "method": "PUT",
      "url": "Observation/655a283056c87335e906061982b9fdd86146aa9dd0fd9cdaa4ffd7da944ae368"
    }
  }, {
    "fullUrl": "Observation/8b2b3f3c6825e6e6734f4a52fdae680c6b09ea8531708fd9b5bc9e9fa103bfbc",
    "resource": {
      "resourceType": "Observation",
      "id": "8b2b3f3c6825e6e6734f4a52fdae680c6b09ea8531708fd9b5bc9e9fa103bfbc",
      "meta": {
        "profile": [ "https://www.medizininformatik-initiative.de/fhir/ext/modul-onko/StructureDefinition/mii-pr-onko-grading" ]
      },
      "identifier": [ {
        "system": "https://bzkf.github.io/obds-to-fhir/identifiers/observation-histologie-id",
        "value": "274_Grading"
      } ],
      "status": "final",
      "category": [ {
        "coding": [ {
          "system": "http://terminology.hl7.org/CodeSystem/observation-category",
          "code": "laboratory"
        } ]
      } ],
      "code": {
        "coding": [ {
          "system": "http://loinc.org",
          "code": "33732-9"
        }, {
          "system": "http://snomed.info/sct",
          "code": "371469007"
        } ]
      },
      "subject": {
        "reference": "Patient/23283daf4d699cc4b3e9d01cd4ce1344cd94f9f9769dfd88da68b2b696332d48"
      },
      "focus": [ {
        "reference": "Condition/864086c778055cfdcf52915c303af7bfa4941ae6f56fb931849319046b09108d"
      } ],
      "effectiveDateTime": "2020-06-01",
      "valueCodeableConcept": {
        "coding": [ {
          "system": "https://www.medizininformatik-initiative.de/fhir/ext/modul-onko/CodeSystem/mii-cs-onko-grading",
          "code": "T"
        } ]
      },
      "specimen": {
        "reference": "Specimen/260ee9c6e60cb4b3bfc1973fd3a671e66b0f16e015502fab46b91ba79e08bf80"
      }
    },
    "request": {
      "method": "PUT",
      "url": "Observation/8b2b3f3c6825e6e6734f4a52fdae680c6b09ea8531708fd9b5bc9e9fa103bfbc"
    }
  }, {
    "fullUrl": "Observation/540037231e4309e8edfde9e68ef73b1761c42f035b0f250710d75170c04baa5d",
    "resource": {
      "resourceType": "Observation",
      "id": "540037231e4309e8edfde9e68ef73b1761c42f035b0f250710d75170c04baa5d",
      "meta": {
        "profile": [ "https://www.medizininformatik-initiative.de/fhir/ext/modul-onko/StructureDefinition/mii-pr-onko-anzahl-befallene-lymphknoten" ]
      },
      "identifier": [ {
        "system": "https://bzkf.github.io/obds-to-fhir/identifiers/observation-histologie-id",
        "value": "274_befallen"
      } ],
      "status": "final",
      "category": [ {
        "coding": [ {
          "system": "http://terminology.hl7.org/CodeSystem/observation-category",
          "code": "laboratory"
        } ]
      } ],
      "code": {
        "coding": [ {
          "system": "http://loinc.org",
          "code": "21893-3"
        }, {
          "system": "http://snomed.info/sct",
          "code": "443527007"
        } ]
      },
      "subject": {
        "reference": "Patient/23283daf4d699cc4b3e9d01cd4ce1344cd94f9f9769dfd88da68b2b696332d48"
      },
      "focus": [ {
        "reference": "Condition/864086c778055cfdcf52915c303af7bfa4941ae6f56fb931849319046b09108d"
      } ],
      "effectiveDateTime": "2020-06-01",
      "valueQuantity": {
        "value": 3,
        "unit": "#",
        "system": "http://unitsofmeasure.org",
        "code": "1"
      },
      "specimen": {
        "reference": "Specimen/260ee9c6e60cb4b3bfc1973fd3a671e66b0f16e015502fab46b91ba79e08bf80"
      }
    },
    "request": {
      "method": "PUT",
      "url": "Observation/540037231e4309e8edfde9e68ef73b1761c42f035b0f250710d75170c04baa5d"
    }
  }, {
    "fullUrl": "Observation/fb6d887b3e8472785171c92c032278e93216544a3b9a8b876ea6dbc6a6f44940",
    "resource": {
      "resourceType": "Observation",
      "id": "fb6d887b3e8472785171c92c032278e93216544a3b9a8b876ea6dbc6a6f44940",
      "meta": {
        "profile": [ "https://www.medizininformatik-initiative.de/fhir/ext/modul-onko/StructureDefinition/mii-pr-onko-anzahl-untersuchte-lymphknoten" ]
      },
      "identifier": [ {
        "system": "https://bzkf.github.io/obds-to-fhir/identifiers/observation-histologie-id",
        "value": "274_untersucht"
      } ],
      "status": "final",
      "category": [ {
        "coding": [ {
          "system": "http://terminology.hl7.org/CodeSystem/observation-category",
          "code": "laboratory"
        } ]
      } ],
      "code": {
        "coding": [ {
          "system": "http://loinc.org",
          "code": "21894-1"
        }, {
          "system": "http://snomed.info/sct",
          "code": "444025001"
        } ]
      },
      "subject": {
        "reference": "Patient/23283daf4d699cc4b3e9d01cd4ce1344cd94f9f9769dfd88da68b2b696332d48"
      },
      "focus": [ {
        "reference": "Condition/864086c778055cfdcf52915c303af7bfa4941ae6f56fb931849319046b09108d"
      } ],
      "effectiveDateTime": "2020-06-01",
      "valueQuantity": {
        "value": 10,
        "unit": "#",
        "system": "http://unitsofmeasure.org",
        "code": "1"
      },
      "specimen": {
        "reference": "Specimen/260ee9c6e60cb4b3bfc1973fd3a671e66b0f16e015502fab46b91ba79e08bf80"
      }
    },
    "request": {
      "method": "PUT",
      "url": "Observation/fb6d887b3e8472785171c92c032278e93216544a3b9a8b876ea6dbc6a6f44940"
    }
  }, {
    "fullUrl": "Observation/0119fe12f395af8612623727c15ba399403531a79041fc58701bf59e42db20d2",
    "resource": {
      "resourceType": "Observation",
      "id": "0119fe12f395af8612623727c15ba399403531a79041fc58701bf59e42db20d2",
      "meta": {
        "profile": [ "https://www.medizininformatik-initiative.de/fhir/ext/modul-onko/StructureDefinition/mii-pr-onko-studienteilnahme" ]
      },
      "identifier": [ {
        "system": "https://bzkf.github.io/obds-to-fhir/identifiers/studienteilnahme-id",
        "value": "OP_80105_Studienteilnahme"
      } ],
      "status": "final",
      "code": {
        "coding": [ {
          "system": "http://snomed.info/sct",
          "code": "709491003",
          "display": "Enrollment in clinical trial (procedure)"
        } ]
      },
      "subject": {
        "reference": "Patient/23283daf4d699cc4b3e9d01cd4ce1344cd94f9f9769dfd88da68b2b696332d48"
      },
      "focus": [ {
        "reference": "Condition/864086c778055cfdcf52915c303af7bfa4941ae6f56fb931849319046b09108d"
      } ],
      "valueCodeableConcept": {
        "coding": [ {
          "system": "https://www.medizininformatik-initiative.de/fhir/ext/modul-onko/CodeSystem/mii-cs-onko-studienteilnahme",
          "code": "N"
        } ]
      }
    },
    "request": {
      "method": "PUT",
      "url": "Observation/0119fe12f395af8612623727c15ba399403531a79041fc58701bf59e42db20d2"
    }
  }, {
    "fullUrl": "Condition/864086c778055cfdcf52915c303af7bfa4941ae6f56fb931849319046b09108d",
    "resource": {
      "resourceType": "Condition",
      "id": "864086c778055cfdcf52915c303af7bfa4941ae6f56fb931849319046b09108d",
      "meta": {
        "profile": [ "https://www.medizininformatik-initiative.de/fhir/ext/modul-onko/StructureDefinition/mii-pr-onko-diagnose-primaertumor" ]
      },
      "extension": [ {
        "url": "https://www.medizininformatik-initiative.de/fhir/ext/modul-onko/StructureDefinition/mii-ex-onko-histology-morphology-behavior-icdo3",
        "valueCodeableConcept": {
          "coding": [ {
            "system": "http://terminology.hl7.org/CodeSystem/icd-o-3",
            "version": "31",
            "code": "8140/3"
          } ]
        }
      }, {
        "url": "http://hl7.org/fhir/StructureDefinition/condition-assertedDate",
        "valueDateTime": "2020-05-10"
      } ],
      "identifier": [ {
        "system": "https://bzkf.github.io/obds-to-fhir/identifiers/primaerdiagnose-id",
        "value": "801"
      } ],
      "verificationStatus": {
        "coding": [ {
          "system": "http://terminology.hl7.org/CodeSystem/condition-ver-status",
          "code": "confirmed"
        }, {
          "system": "https://www.medizininformatik-initiative.de/fhir/ext/modul-onko/CodeSystem/mii-cs-onko-primaertumor-diagnosesicherung",
          "code": "7"
        } ]
      },
      "code": {
        "coding": [ {
          "system": "http://fhir.de/CodeSystem/bfarm/icd-10-gm",
          "version": "2020",
          "code": "C61"
        } ]
      },
      "bodySite": [ {
        "coding": [ {
          "system": "http://terminology.hl7.org/CodeSystem/icd-o-3",
          "version": "33",
          "code": "C61.9"
        } ]
      }, {
        "coding": [ {
          "system": "https://www.medizininformatik-initiative.de/fhir/ext/modul-onko/CodeSystem/mii-cs-onko-seitenlokalisation",
          "code": "T"
        } ]
      } ],
      "subject": {
        "reference": "Patient/23283daf4d699cc4b3e9d01cd4ce1344cd94f9f9769dfd88da68b2b696332d48"
      },
      "recordedDate": "2024-02-16"
    },
    "request": {
      "method": "PUT",
      "url": "Condition/864086c778055cfdcf52915c303af7bfa4941ae6f56fb931849319046b09108d"
    }
  }, {
    "fullUrl": "Observation/33ffb713694408e707d2cdcc4ce660a637c11a9470ca973e8a62f4354d950d9c",
    "resource": {
      "resourceType": "Observation",
      "id": "33ffb713694408e707d2cdcc4ce660a637c11a9470ca973e8a62f4354d950d9c",
      "meta": {
        "profile": [ "https://www.medizininformatik-initiative.de/fhir/ext/modul-onko/StructureDefinition/mii-pr-onko-allgemeiner-leistungszustand-ecog" ]
      },
      "identifier": [ {
        "system": "https://bzkf.github.io/obds-to-fhir/identifiers/allgemeiner-leistungszustand-ecog-id",
        "value": "ECOG-DIA_80106"
      } ],
      "status": "final",
      "code": {
        "coding": [ {
          "system": "http://snomed.info/sct",
          "code": "423740007"
        } ]
      },
      "subject": {
        "reference": "Patient/23283daf4d699cc4b3e9d01cd4ce1344cd94f9f9769dfd88da68b2b696332d48"
      },
      "focus": [ {
        "reference": "Condition/864086c778055cfdcf52915c303af7bfa4941ae6f56fb931849319046b09108d"
      } ],
      "effectiveDateTime": "2020-05-10",
      "valueCodeableConcept": {
        "coding": [ {
          "system": "https://www.medizininformatik-initiative.de/fhir/ext/modul-onko/CodeSystem/mii-cs-onko-allgemeiner-leistungszustand-ecog",
          "code": "0",
          "display": "Normale, uneingeschränkte Aktivität wie vor der Erkrankung (90 - 100 % nach Karnofsky)"
        } ]
      }
    },
    "request": {
      "method": "PUT",
      "url": "Observation/33ffb713694408e707d2cdcc4ce660a637c11a9470ca973e8a62f4354d950d9c"
    }
  }, {
    "fullUrl": "Specimen/35f6eb71938cb4443e61bcb09fd51d291354c3230ec55e6e6b0d934830013046",
    "resource": {
      "resourceType": "Specimen",
      "id": "35f6eb71938cb4443e61bcb09fd51d291354c3230ec55e6e6b0d934830013046",
      "meta": {
        "profile": [ "https://www.medizininformatik-initiative.de/fhir/ext/modul-onko/StructureDefinition/mii-pr-onko-specimen" ]
      },
      "identifier": [ {
        "system": "https://bzkf.github.io/obds-to-fhir/identifiers/specimen-id",
        "value": "275"
      } ],
      "accessionIdentifier": {
        "value": "H14672/2020"
      },
      "subject": {
        "reference": "Patient/23283daf4d699cc4b3e9d01cd4ce1344cd94f9f9769dfd88da68b2b696332d48"
      },
      "collection": {
        "collectedDateTime": "2020-05-10"
      }
    },
    "request": {
      "method": "PUT",
      "url": "Specimen/35f6eb71938cb4443e61bcb09fd51d291354c3230ec55e6e6b0d934830013046"
    }
  }, {
    "fullUrl": "Observation/9d0908bf5ce32e2ef8d5feab18b7db36e51013c117f117d510fadc113545fdde",
    "resource": {
      "resourceType": "Observation",
      "id": "9d0908bf5ce32e2ef8d5feab18b7db36e51013c117f117d510fadc113545fdde",
      "meta": {
        "profile": [ "https://www.medizininformatik-initiative.de/fhir/ext/modul-onko/StructureDefinition/mii-pr-onko-histologie-icdo3" ]
      },
      "identifier": [ {
        "system": "https://bzkf.github.io/obds-to-fhir/identifiers/observation-histologie-id",
        "value": "275_ICDO3_8140/3"
      } ],
      "status": "final",
      "code": {
        "coding": [ {
          "system": "http://loinc.org",
          "code": "59847-4"
        } ]
      },
      "subject": {
        "reference": "Patient/23283daf4d699cc4b3e9d01cd4ce1344cd94f9f9769dfd88da68b2b696332d48"
      },
      "focus": [ {
        "reference": "Condition/864086c778055cfdcf52915c303af7bfa4941ae6f56fb931849319046b09108d"
      } ],
      "effectiveDateTime": "2020-05-10",
      "valueCodeableConcept": {
        "coding": [ {
          "system": "http://terminology.hl7.org/CodeSystem/icd-o-3",
          "version": "31",
          "code": "8140/3"
        } ],
        "text": "Adenokarzinom o.n.A."
      },
      "specimen": {
        "reference": "Specimen/35f6eb71938cb4443e61bcb09fd51d291354c3230ec55e6e6b0d934830013046"
      }
    },
    "request": {
      "method": "PUT",
      "url": "Observation/9d0908bf5ce32e2ef8d5feab18b7db36e51013c117f117d510fadc113545fdde"
    }
  }, {
    "fullUrl": "Observation/7d1c56a3b0b9593effe5e771eb20e8decad22acd4764e9de568876192510fb5f",
    "resource": {
      "resourceType": "Observation",
      "id": "7d1c56a3b0b9593effe5e771eb20e8decad22acd4764e9de568876192510fb5f",
      "meta": {
        "profile": [ "https://www.medizininformatik-initiative.de/fhir/ext/modul-onko/StructureDefinition/mii-pr-onko-grading" ]
      },
      "identifier": [ {
        "system": "https://bzkf.github.io/obds-to-fhir/identifiers/observation-histologie-id",
        "value": "275_Grading"
      } ],
      "status": "final",
      "category": [ {
        "coding": [ {
          "system": "http://terminology.hl7.org/CodeSystem/observation-category",
          "code": "laboratory"
        } ]
      } ],
      "code": {
        "coding": [ {
          "system": "http://loinc.org",
          "code": "33732-9"
        }, {
          "system": "http://snomed.info/sct",
          "code": "371469007"
        } ]
      },
      "subject": {
        "reference": "Patient/23283daf4d699cc4b3e9d01cd4ce1344cd94f9f9769dfd88da68b2b696332d48"
      },
      "focus": [ {
        "reference": "Condition/864086c778055cfdcf52915c303af7bfa4941ae6f56fb931849319046b09108d"
      } ],
      "effectiveDateTime": "2020-05-10",
      "valueCodeableConcept": {
        "coding": [ {
          "system": "https://www.medizininformatik-initiative.de/fhir/ext/modul-onko/CodeSystem/mii-cs-onko-grading",
          "code": "T"
        } ]
      },
      "specimen": {
        "reference": "Specimen/35f6eb71938cb4443e61bcb09fd51d291354c3230ec55e6e6b0d934830013046"
      }
    },
    "request": {
      "method": "PUT",
      "url": "Observation/7d1c56a3b0b9593effe5e771eb20e8decad22acd4764e9de568876192510fb5f"
    }
  }, {
    "fullUrl": "Observation/6d49dc7db0a4d68322f3d35ba2a1150b5cd98e0b1b09834df7a23ab16f730dbe",
    "resource": {
      "resourceType": "Observation",
      "id": "6d49dc7db0a4d68322f3d35ba2a1150b5cd98e0b1b09834df7a23ab16f730dbe",
      "meta": {
        "profile": [ "https://www.medizininformatik-initiative.de/fhir/ext/modul-onko/StructureDefinition/mii-pr-onko-verlauf" ]
      },
      "identifier": [ {
        "system": "https://bzkf.github.io/obds-to-fhir/identifiers/observation-verlauf-id",
        "value": "159"
      } ],
      "status": "final",
      "code": {
        "coding": [ {
          "system": "http://snomed.info/sct",
          "code": "396432002",
          "display": "Status of regression of tumor (observable entity)"
        } ]
      },
      "subject": {
        "reference": "Patient/23283daf4d699cc4b3e9d01cd4ce1344cd94f9f9769dfd88da68b2b696332d48"
      },
      "focus": [ {
        "reference": "Condition/864086c778055cfdcf52915c303af7bfa4941ae6f56fb931849319046b09108d"
      } ],
      "effectiveDateTime": "2020-10-14",
      "valueCodeableConcept": {
        "coding": [ {
          "system": "https://www.medizininformatik-initiative.de/fhir/ext/modul-onko/CodeSystem/mii-cs-onko-verlauf-gesamtbeurteilung",
          "code": "V",
          "display": "Vollremission"
        } ]
      },
      "component": [ {
        "code": {
          "coding": [ {
            "system": "http://snomed.info/sct",
            "code": "277062004",
            "display": "Status des Residualtumors"
          } ]
        },
        "valueCodeableConcept": {
          "coding": [ {
            "system": "https://www.medizininformatik-initiative.de/fhir/ext/modul-onko/CodeSystem/mii-cs-onko-verlauf-primaertumor",
            "code": "K",
            "display": "kein Tumor nachweisbar"
          } ]
        }
      }, {
        "code": {
          "coding": [ {
            "system": "http://snomed.info/sct",
            "code": "399656008",
            "display": "Status of tumor metastasis to regional lymph nodes (observable entity)"
          } ]
        },
        "valueCodeableConcept": {
          "coding": [ {
            "system": "https://www.medizininformatik-initiative.de/fhir/ext/modul-onko/CodeSystem/mii-cs-onko-verlauf-lymphknoten",
            "code": "K",
            "display": "kein Lymphknotenbefall nachweisbar"
          } ]
        }
      }, {
        "code": {
          "coding": [ {
            "system": "http://snomed.info/sct",
            "code": "399608002",
            "display": "Status of distant metastasis (observable entity)"
          } ]
        },
        "valueCodeableConcept": {
          "coding": [ {
            "system": "https://www.medizininformatik-initiative.de/fhir/ext/modul-onko/CodeSystem/mii-cs-onko-verlauf-fernmetastasen",
            "code": "K",
            "display": "keine Fernmetastasen nachweisbar"
          } ]
        }
      } ]
    },
    "request": {
      "method": "PUT",
      "url": "Observation/6d49dc7db0a4d68322f3d35ba2a1150b5cd98e0b1b09834df7a23ab16f730dbe"
    }
  } ]
}