{
  "resourceType": "Bundle",
  "id": "1f3cbe89f02e77981b92928db4f8522ddd4be1d8d14a243e7fcc9834a0d35575",
  "type": "transaction",
  "entry": [ {
    "fullUrl": "Patient/1f3cbe89f02e77981b92928db4f8522ddd4be1d8d14a243e7fcc9834a0d35575",
    "resource": {
      "resourceType": "Patient",
      "id": "1f3cbe89f02e77981b92928db4f8522ddd4be1d8d14a243e7fcc9834a0d35575",
      "meta": {
        "profile": [ "https://www.medizininformatik-initiative.de/fhir/core/modul-person/StructureDefinition/PatientPseudonymisiert" ]
      },
      "identifier": [ {
        "type": {
          "coding": [ {
            "system": "http://terminology.hl7.org/CodeSystem/v2-0203",
            "code": "MR",
            "display": "Medical record number"
          }, {
            "system": "http://terminology.hl7.org/CodeSystem/v3-ObservationValue",
            "code": "PSEUDED",
            "display": "pseudonymized"
          } ]
        },
        "system": "https://bzkf.github.io/obds-to-fhir/identifiers/patient-id",
        "value": "41"
      } ],
      "gender": "male",
      "birthDate": "1980-01-02",
      "address": [ {
        "type": "both",
        "postalCode": "98765",
        "country": "DE"
      } ]
    },
    "request": {
      "method": "PUT",
      "url": "Patient/1f3cbe89f02e77981b92928db4f8522ddd4be1d8d14a243e7fcc9834a0d35575"
    }
  }, {
    "fullUrl": "Specimen/44484431b96747792dd9f446da41a57c29c0eee2038cc7113e311afd29a12892",
    "resource": {
      "resourceType": "Specimen",
      "id": "44484431b96747792dd9f446da41a57c29c0eee2038cc7113e311afd29a12892",
      "meta": {
        "profile": [ "https://www.medizininformatik-initiative.de/fhir/ext/modul-onko/StructureDefinition/mii-pr-onko-specimen" ]
      },
      "identifier": [ {
        "system": "https://bzkf.github.io/obds-to-fhir/identifiers/specimen-id",
        "value": "271"
      } ],
      "accessionIdentifier": {
        "value": "H00012345-21"
      },
      "subject": {
        "reference": "Patient/1f3cbe89f02e77981b92928db4f8522ddd4be1d8d14a243e7fcc9834a0d35575"
      },
      "collection": {
        "collectedDateTime": "2021-07-08"
      }
    },
    "request": {
      "method": "PUT",
      "url": "Specimen/44484431b96747792dd9f446da41a57c29c0eee2038cc7113e311afd29a12892"
    }
  }, {
    "fullUrl": "Observation/7882d2a8b0a2ae98627ac04bb0bd00dafe5faa4c9f817fa1f65d9ec85a94115c",
    "resource": {
      "resourceType": "Observation",
      "id": "7882d2a8b0a2ae98627ac04bb0bd00dafe5faa4c9f817fa1f65d9ec85a94115c",
      "meta": {
        "profile": [ "https://www.medizininformatik-initiative.de/fhir/ext/modul-onko/StructureDefinition/mii-pr-onko-histologie-icdo3" ]
      },
      "identifier": [ {
        "system": "https://bzkf.github.io/obds-to-fhir/identifiers/observation-histologie-id",
        "value": "271_ICDO3_8140/3"
      } ],
      "status": "final",
      "code": {
        "coding": [ {
          "system": "http://loinc.org",
          "code": "59847-4"
        } ]
      },
      "subject": {
        "reference": "Patient/1f3cbe89f02e77981b92928db4f8522ddd4be1d8d14a243e7fcc9834a0d35575"
      },
      "focus": [ {
        "reference": "Condition/7f25e46a31c82b72367322e974359038f2ef57071b6c3c38ef6a99dc94691358"
      } ],
      "effectiveDateTime": "2021-07-08",
      "valueCodeableConcept": {
        "coding": [ {
          "system": "http://terminology.hl7.org/CodeSystem/icd-o-3",
          "version": "33",
          "code": "8140/3"
        } ],
        "text": "Adenokarzinom"
      },
      "specimen": {
        "reference": "Specimen/44484431b96747792dd9f446da41a57c29c0eee2038cc7113e311afd29a12892"
      }
    },
    "request": {
      "method": "PUT",
      "url": "Observation/7882d2a8b0a2ae98627ac04bb0bd00dafe5faa4c9f817fa1f65d9ec85a94115c"
    }
  }, {
    "fullUrl": "Observation/e4d95f80a03a68f276812ceeb0b142f0682c4b2817405814d8e1f6ae6c423d18",
    "resource": {
      "resourceType": "Observation",
      "id": "e4d95f80a03a68f276812ceeb0b142f0682c4b2817405814d8e1f6ae6c423d18",
      "meta": {
        "profile": [ "https://www.medizininformatik-initiative.de/fhir/ext/modul-onko/StructureDefinition/mii-pr-onko-grading" ]
      },
      "identifier": [ {
        "system": "https://bzkf.github.io/obds-to-fhir/identifiers/observation-histologie-id",
        "value": "271_Grading"
      } ],
      "status": "final",
      "category": [ {
        "coding": [ {
          "system": "http://terminology.hl7.org/CodeSystem/observation-category",
          "code": "laboratory"
        } ]
      } ],
      "code": {
        "coding": [ {
          "system": "http://loinc.org",
          "code": "33732-9"
        }, {
          "system": "http://snomed.info/sct",
          "code": "371469007"
        } ]
      },
      "subject": {
        "reference": "Patient/1f3cbe89f02e77981b92928db4f8522ddd4be1d8d14a243e7fcc9834a0d35575"
      },
      "focus": [ {
        "reference": "Condition/7f25e46a31c82b72367322e974359038f2ef57071b6c3c38ef6a99dc94691358"
      } ],
      "effectiveDateTime": "2021-07-08",
      "valueCodeableConcept": {
        "coding": [ {
          "system": "https://www.medizininformatik-initiative.de/fhir/ext/modul-onko/CodeSystem/mii-cs-onko-grading",
          "code": "T"
        } ]
      }
    },
    "request": {
      "method": "PUT",
      "url": "Observation/e4d95f80a03a68f276812ceeb0b142f0682c4b2817405814d8e1f6ae6c423d18"
    }
  }, {
    "fullUrl": "DiagnosticReport/46563ac340ea2b1b5d8d0fb87517bf2e97870675437e7ab6ea3c87c53386e3db",
    "resource": {
      "resourceType": "DiagnosticReport",
      "id": "46563ac340ea2b1b5d8d0fb87517bf2e97870675437e7ab6ea3c87c53386e3db",
      "identifier": [ {
        "system": "https://bzkf.github.io/obds-to-fhir/identifiers/histologiebefund-diagnostic-report-id",
        "value": "PAT_70102"
      } ],
      "status": "final",
      "code": {
        "coding": [ {
          "system": "http://loinc.org",
          "code": "22034-3"
        } ]
      },
      "subject": {
        "reference": "Patient/1f3cbe89f02e77981b92928db4f8522ddd4be1d8d14a243e7fcc9834a0d35575"
      },
      "specimen": [ {
        "reference": "Specimen/44484431b96747792dd9f446da41a57c29c0eee2038cc7113e311afd29a12892"
      } ],
      "conclusion": "Lorem ipsum dolor sit amet, consectetaur adipisicing elit, sed do eiusmod tempor incididunt ut labore et dolore magna aliqua. Ut enim ad minim veniam, quis nostrud exercitation ullamco laboris nisi ut aliquip ex ea commodo consequat. Duis aute irure dolor in reprehenderit in voluptate velit esse cillum dolore eu fugiat nulla pariatur."
    },
    "request": {
      "method": "PUT",
      "url": "DiagnosticReport/46563ac340ea2b1b5d8d0fb87517bf2e97870675437e7ab6ea3c87c53386e3db"
    }
  } ]
}