{
  "resourceType": "Bundle",
  "id": "5098a39800d97f3939da3ee42943b863a227d051c05789f223880279dc077203",
  "type": "transaction",
  "entry": [ {
    "fullUrl": "Patient/5098a39800d97f3939da3ee42943b863a227d051c05789f223880279dc077203",
    "resource": {
      "resourceType": "Patient",
      "id": "5098a39800d97f3939da3ee42943b863a227d051c05789f223880279dc077203",
      "meta": {
        "profile": [ "https://www.medizininformatik-initiative.de/fhir/core/modul-person/StructureDefinition/PatientPseudonymisiert" ]
      },
      "identifier": [ {
        "type": {
          "coding": [ {
            "system": "http://terminology.hl7.org/CodeSystem/v2-0203",
            "code": "MR",
            "display": "Medical record number"
          }, {
            "system": "http://terminology.hl7.org/CodeSystem/v3-ObservationValue",
            "code": "PSEUDED",
            "display": "pseudonymized"
          } ]
        },
        "system": "https://bzkf.github.io/obds-to-fhir/identifiers/patient-id",
        "value": "17"
      } ],
      "gender": "female",
      "birthDate": "1969-06-01",
      "deceasedDateTime": "2023-09-01",
      "address": [ {
        "type": "both",
        "postalCode": "35287",
        "country": "DE"
      } ]
    },
    "request": {
      "method": "PUT",
      "url": "Patient/5098a39800d97f3939da3ee42943b863a227d051c05789f223880279dc077203"
    }
  }, {
    "fullUrl": "Condition/9b5cabc4facc22d2681d7b63c3986487f3646a7ad8c10f95d96db8ea5fe29c33",
    "resource": {
      "resourceType": "Condition",
      "id": "9b5cabc4facc22d2681d7b63c3986487f3646a7ad8c10f95d96db8ea5fe29c33",
      "meta": {
        "profile": [ "https://www.medizininformatik-initiative.de/fhir/ext/modul-onko/StructureDefinition/mii-pr-onko-diagnose-primaertumor" ]
      },
      "extension": [ {
        "url": "https://www.medizininformatik-initiative.de/fhir/ext/modul-onko/StructureDefinition/mii-ex-onko-histology-morphology-behavior-icdo3",
        "valueCodeableConcept": {
          "coding": [ {
            "system": "http://terminology.hl7.org/CodeSystem/icd-o-3",
            "version": "31",
            "code": "8085/3"
          } ]
        }
      }, {
        "url": "http://hl7.org/fhir/StructureDefinition/condition-assertedDate",
        "valueDateTime": "2018-02-01"
      } ],
      "identifier": [ {
        "system": "https://bzkf.github.io/obds-to-fhir/identifiers/primaerdiagnose-id",
        "value": "171"
      } ],
      "verificationStatus": {
        "coding": [ {
          "system": "http://terminology.hl7.org/CodeSystem/condition-ver-status",
          "code": "confirmed"
        }, {
          "system": "https://www.medizininformatik-initiative.de/fhir/ext/modul-onko/CodeSystem/mii-cs-onko-primaertumor-diagnosesicherung",
          "code": "7"
        } ]
      },
      "code": {
        "coding": [ {
          "system": "http://fhir.de/CodeSystem/bfarm/icd-10-gm",
          "version": "2018",
          "code": "C53.9"
        } ]
      },
      "bodySite": [ {
        "coding": [ {
          "system": "http://terminology.hl7.org/CodeSystem/icd-o-3",
          "version": "33",
          "code": "C53.9"
        } ]
      }, {
        "coding": [ {
          "system": "https://www.medizininformatik-initiative.de/fhir/ext/modul-onko/CodeSystem/mii-cs-onko-seitenlokalisation",
          "code": "T"
        } ]
      } ],
      "subject": {
        "reference": "Patient/5098a39800d97f3939da3ee42943b863a227d051c05789f223880279dc077203"
      },
      "recordedDate": "2024-06-14"
    },
    "request": {
      "method": "PUT",
      "url": "Condition/9b5cabc4facc22d2681d7b63c3986487f3646a7ad8c10f95d96db8ea5fe29c33"
    }
  }, {
    "fullUrl": "Observation/d8da9e230494224c1f567f73dd9ea9fddfb8a3115276d5f6205416ed1ccc4193",
    "resource": {
      "resourceType": "Observation",
      "id": "d8da9e230494224c1f567f73dd9ea9fddfb8a3115276d5f6205416ed1ccc4193",
      "meta": {
        "profile": [ "https://www.medizininformatik-initiative.de/fhir/ext/modul-onko/StructureDefinition/mii-pr-onko-allgemeiner-leistungszustand-ecog" ]
      },
      "identifier": [ {
        "system": "https://bzkf.github.io/obds-to-fhir/identifiers/allgemeiner-leistungszustand-ecog-id",
        "value": "ECOG-DIA_17101"
      } ],
      "status": "final",
      "code": {
        "coding": [ {
          "system": "http://snomed.info/sct",
          "code": "423740007"
        } ]
      },
      "subject": {
        "reference": "Patient/5098a39800d97f3939da3ee42943b863a227d051c05789f223880279dc077203"
      },
      "focus": [ {
        "reference": "Condition/9b5cabc4facc22d2681d7b63c3986487f3646a7ad8c10f95d96db8ea5fe29c33"
      } ],
      "effectiveDateTime": "2018-02-01",
      "valueCodeableConcept": {
        "coding": [ {
          "system": "https://www.medizininformatik-initiative.de/fhir/ext/modul-onko/CodeSystem/mii-cs-onko-allgemeiner-leistungszustand-ecog",
          "code": "0",
          "display": "Normale, uneingeschränkte Aktivität wie vor der Erkrankung (90 - 100 % nach Karnofsky)"
        } ]
      }
    },
    "request": {
      "method": "PUT",
      "url": "Observation/d8da9e230494224c1f567f73dd9ea9fddfb8a3115276d5f6205416ed1ccc4193"
    }
  }, {
    "fullUrl": "Specimen/e509ee1edc27e2c99041802e0912eb9de4f4eb4a7fa730237a90977a4617b3f1",
    "resource": {
      "resourceType": "Specimen",
      "id": "e509ee1edc27e2c99041802e0912eb9de4f4eb4a7fa730237a90977a4617b3f1",
      "meta": {
        "profile": [ "https://www.medizininformatik-initiative.de/fhir/ext/modul-onko/StructureDefinition/mii-pr-onko-specimen" ]
      },
      "identifier": [ {
        "system": "https://bzkf.github.io/obds-to-fhir/identifiers/specimen-id",
        "value": "291"
      } ],
      "accessionIdentifier": {
        "value": "1234/5"
      },
      "subject": {
        "reference": "Patient/5098a39800d97f3939da3ee42943b863a227d051c05789f223880279dc077203"
      },
      "collection": {
        "collectedDateTime": "2018-02-01"
      }
    },
    "request": {
      "method": "PUT",
      "url": "Specimen/e509ee1edc27e2c99041802e0912eb9de4f4eb4a7fa730237a90977a4617b3f1"
    }
  }, {
    "fullUrl": "Observation/9c3e330b52109d91e5cfa83437f212ea78bfbc5be9c9ecd2581e57f5a4d9f705",
    "resource": {
      "resourceType": "Observation",
      "id": "9c3e330b52109d91e5cfa83437f212ea78bfbc5be9c9ecd2581e57f5a4d9f705",
      "meta": {
        "profile": [ "https://www.medizininformatik-initiative.de/fhir/ext/modul-onko/StructureDefinition/mii-pr-onko-histologie-icdo3" ]
      },
      "identifier": [ {
        "system": "https://bzkf.github.io/obds-to-fhir/identifiers/observation-histologie-id",
        "value": "291-ICDO3-8085/3"
      } ],
      "status": "final",
      "code": {
        "coding": [ {
          "system": "http://loinc.org",
          "code": "59847-4"
        } ]
      },
      "subject": {
        "reference": "Patient/5098a39800d97f3939da3ee42943b863a227d051c05789f223880279dc077203"
      },
      "focus": [ {
        "reference": "Condition/9b5cabc4facc22d2681d7b63c3986487f3646a7ad8c10f95d96db8ea5fe29c33"
      } ],
      "effectiveDateTime": "2018-02-01",
      "valueCodeableConcept": {
        "coding": [ {
          "system": "http://terminology.hl7.org/CodeSystem/icd-o-3",
          "version": "31",
          "code": "8085/3"
        } ],
        "text": "Plattenepithelkarzinom, HPV-positiv"
      },
      "specimen": {
        "reference": "Specimen/e509ee1edc27e2c99041802e0912eb9de4f4eb4a7fa730237a90977a4617b3f1"
      }
    },
    "request": {
      "method": "PUT",
      "url": "Observation/9c3e330b52109d91e5cfa83437f212ea78bfbc5be9c9ecd2581e57f5a4d9f705"
    }
  }, {
    "fullUrl": "Observation/4a7a22ed7475d2cd34a72eb4ef645dee8a4ae29a828263c3778288c5e4bfc01f",
    "resource": {
      "resourceType": "Observation",
      "id": "4a7a22ed7475d2cd34a72eb4ef645dee8a4ae29a828263c3778288c5e4bfc01f",
      "meta": {
        "profile": [ "https://www.medizininformatik-initiative.de/fhir/ext/modul-onko/StructureDefinition/mii-pr-onko-grading" ]
      },
      "identifier": [ {
        "system": "https://bzkf.github.io/obds-to-fhir/identifiers/grading-observation-id",
        "value": "291-grading"
      } ],
      "status": "final",
      "category": [ {
        "coding": [ {
          "system": "http://terminology.hl7.org/CodeSystem/observation-category",
          "code": "laboratory"
        } ]
      } ],
      "code": {
        "coding": [ {
          "system": "http://loinc.org",
          "code": "33732-9"
        }, {
          "system": "http://snomed.info/sct",
          "code": "371469007"
        } ]
      },
      "subject": {
        "reference": "Patient/5098a39800d97f3939da3ee42943b863a227d051c05789f223880279dc077203"
      },
      "focus": [ {
        "reference": "Condition/9b5cabc4facc22d2681d7b63c3986487f3646a7ad8c10f95d96db8ea5fe29c33"
      } ],
      "effectiveDateTime": "2018-02-01",
      "valueCodeableConcept": {
        "coding": [ {
          "system": "https://www.medizininformatik-initiative.de/fhir/ext/modul-onko/CodeSystem/mii-cs-onko-grading",
          "code": "3"
        } ]
      },
      "specimen": {
        "reference": "Specimen/e509ee1edc27e2c99041802e0912eb9de4f4eb4a7fa730237a90977a4617b3f1"
      }
    },
    "request": {
      "method": "PUT",
      "url": "Observation/4a7a22ed7475d2cd34a72eb4ef645dee8a4ae29a828263c3778288c5e4bfc01f"
    }
  }, {
    "fullUrl": "Observation/5008f0425d81015299e3925b0b9b962335125a7b3ac2678d7343ee4e0850299c",
    "resource": {
      "resourceType": "Observation",
      "id": "5008f0425d81015299e3925b0b9b962335125a7b3ac2678d7343ee4e0850299c",
      "meta": {
        "profile": [ "https://www.medizininformatik-initiative.de/fhir/ext/modul-onko/StructureDefinition/mii-pr-onko-studienteilnahme" ]
      },
      "identifier": [ {
        "system": "https://bzkf.github.io/obds-to-fhir/identifiers/studienteilnahme-id",
        "value": "DIA_17101_Studienteilnahme"
      } ],
      "status": "final",
      "code": {
        "coding": [ {
          "system": "http://snomed.info/sct",
          "code": "709491003",
          "display": "Enrollment in clinical trial (procedure)"
        } ]
      },
      "subject": {
        "reference": "Patient/5098a39800d97f3939da3ee42943b863a227d051c05789f223880279dc077203"
      },
      "focus": [ {
        "reference": "Condition/9b5cabc4facc22d2681d7b63c3986487f3646a7ad8c10f95d96db8ea5fe29c33"
      } ],
      "valueCodeableConcept": {
        "coding": [ {
          "system": "https://www.medizininformatik-initiative.de/fhir/ext/modul-onko/CodeSystem/mii-cs-onko-studienteilnahme",
          "code": "N"
        } ]
      }
    },
    "request": {
      "method": "PUT",
      "url": "Observation/5008f0425d81015299e3925b0b9b962335125a7b3ac2678d7343ee4e0850299c"
    }
  }, {
    "fullUrl": "Observation/1ff73eb27ae3401e2b225af819e56cce291aefaadc80bfd54526ea23f52ebc42",
    "resource": {
      "resourceType": "Observation",
      "id": "1ff73eb27ae3401e2b225af819e56cce291aefaadc80bfd54526ea23f52ebc42",
      "meta": {
        "profile": [ "https://www.medizininformatik-initiative.de/fhir/ext/modul-onko/StructureDefinition/mii-pr-onko-tnm-t-kategorie" ]
      },
      "identifier": [ {
        "system": "https://bzkf.github.io/obds-to-fhir/identifiers/tnm-t-kategorie-observation-id",
        "value": "264_T"
      } ],
      "status": "final",
      "code": {
        "extension": [ {
          "url": "https://www.medizininformatik-initiative.de/fhir/ext/modul-onko/StructureDefinition/mii-ex-onko-tnm-cp-praefix",
          "valueCodeableConcept": {
            "coding": [ {
              "system": "https://www.uicc.org/resources/tnm",
              "code": "p"
            } ]
          }
        } ],
        "coding": [ {
          "system": "http://snomed.info/sct",
          "code": "384625004",
          "display": "pT category (observable entity)"
        } ]
      },
      "subject": {
        "reference": "Patient/5098a39800d97f3939da3ee42943b863a227d051c05789f223880279dc077203"
      },
      "focus": [ {
        "reference": "Condition/9b5cabc4facc22d2681d7b63c3986487f3646a7ad8c10f95d96db8ea5fe29c33"
      } ],
      "effectiveDateTime": "2020-02-01",
      "valueCodeableConcept": {
        "coding": [ {
          "system": "https://www.uicc.org/resources/tnm",
          "code": "T2"
        } ]
      },
      "method": {
        "coding": [ {
          "system": "https://www.medizininformatik-initiative.de/fhir/ext/modul-onko/CodeSystem/mii-cs-onko-tnm-version",
          "code": "8"
        } ]
      }
    },
    "request": {
      "method": "PUT",
      "url": "Observation/1ff73eb27ae3401e2b225af819e56cce291aefaadc80bfd54526ea23f52ebc42"
    }
  }, {
    "fullUrl": "Observation/813e7d8c91cb0a0c3bb617dbdd15e0e6932c3374096084f182a664786f82d8e5",
    "resource": {
      "resourceType": "Observation",
      "id": "813e7d8c91cb0a0c3bb617dbdd15e0e6932c3374096084f182a664786f82d8e5",
      "meta": {
        "profile": [ "https://www.medizininformatik-initiative.de/fhir/ext/modul-onko/StructureDefinition/mii-pr-onko-tnm-n-kategorie" ]
      },
      "identifier": [ {
        "system": "https://bzkf.github.io/obds-to-fhir/identifiers/tnm-n-kategorie-observation-id",
        "value": "264_N"
      } ],
      "status": "final",
      "code": {
        "extension": [ {
          "url": "https://www.medizininformatik-initiative.de/fhir/ext/modul-onko/StructureDefinition/mii-ex-onko-tnm-cp-praefix",
          "valueCodeableConcept": {
            "coding": [ {
              "system": "https://www.uicc.org/resources/tnm",
              "code": "p"
            } ]
          }
        } ],
        "coding": [ {
          "system": "http://snomed.info/sct",
          "code": "371494008",
          "display": "pN category (observable entity)"
        } ]
      },
      "subject": {
        "reference": "Patient/5098a39800d97f3939da3ee42943b863a227d051c05789f223880279dc077203"
      },
      "focus": [ {
        "reference": "Condition/9b5cabc4facc22d2681d7b63c3986487f3646a7ad8c10f95d96db8ea5fe29c33"
      } ],
      "effectiveDateTime": "2020-02-01",
      "valueCodeableConcept": {
        "coding": [ {
          "system": "https://www.uicc.org/resources/tnm",
          "code": "N0"
        } ]
      },
      "method": {
        "coding": [ {
          "system": "https://www.medizininformatik-initiative.de/fhir/ext/modul-onko/CodeSystem/mii-cs-onko-tnm-version",
          "code": "8"
        } ]
      }
    },
    "request": {
      "method": "PUT",
      "url": "Observation/813e7d8c91cb0a0c3bb617dbdd15e0e6932c3374096084f182a664786f82d8e5"
    }
  }, {
    "fullUrl": "Observation/71c2ddb19edb36d41f938440694a745802fe9386d74238abb43282a8f9bbad4b",
    "resource": {
      "resourceType": "Observation",
      "id": "71c2ddb19edb36d41f938440694a745802fe9386d74238abb43282a8f9bbad4b",
      "meta": {
        "profile": [ "https://www.medizininformatik-initiative.de/fhir/ext/modul-onko/StructureDefinition/mii-pr-onko-tnm-m-kategorie" ]
      },
      "identifier": [ {
        "system": "https://bzkf.github.io/obds-to-fhir/identifiers/tnm-m-kategorie-observation-id",
        "value": "264_M"
      } ],
      "status": "final",
      "code": {
        "extension": [ {
          "url": "https://www.medizininformatik-initiative.de/fhir/ext/modul-onko/StructureDefinition/mii-ex-onko-tnm-cp-praefix",
          "valueCodeableConcept": {
            "coding": [ {
              "system": "https://www.uicc.org/resources/tnm",
              "code": "c"
            } ]
          }
        } ],
        "coding": [ {
          "system": "http://snomed.info/sct",
          "code": "399387003",
          "display": "cM category (observable entity)"
        } ]
      },
      "subject": {
        "reference": "Patient/5098a39800d97f3939da3ee42943b863a227d051c05789f223880279dc077203"
      },
      "focus": [ {
        "reference": "Condition/9b5cabc4facc22d2681d7b63c3986487f3646a7ad8c10f95d96db8ea5fe29c33"
      } ],
      "effectiveDateTime": "2020-02-01",
      "valueCodeableConcept": {
        "coding": [ {
          "system": "https://www.uicc.org/resources/tnm",
          "code": "M0"
        } ]
      },
      "method": {
        "coding": [ {
          "system": "https://www.medizininformatik-initiative.de/fhir/ext/modul-onko/CodeSystem/mii-cs-onko-tnm-version",
          "code": "8"
        } ]
      }
    },
    "request": {
      "method": "PUT",
      "url": "Observation/71c2ddb19edb36d41f938440694a745802fe9386d74238abb43282a8f9bbad4b"
    }
  }, {
    "fullUrl": "Observation/77e4e817cf9792f97f94a4a4946a103fc7b6dffd2f567fd9f08f125acd9b682f",
    "resource": {
      "resourceType": "Observation",
      "id": "77e4e817cf9792f97f94a4a4946a103fc7b6dffd2f567fd9f08f125acd9b682f",
      "meta": {
        "profile": [ "https://www.medizininformatik-initiative.de/fhir/ext/modul-onko/StructureDefinition/mii-pr-onko-tnm-klassifikation" ]
      },
      "identifier": [ {
        "system": "https://bzkf.github.io/obds-to-fhir/identifiers/tnm-grouping-observation-id",
        "value": "264"
      } ],
      "status": "final",
      "code": {
        "coding": [ {
          "system": "http://snomed.info/sct",
          "code": "399588009",
          "display": "Pathologic TNM stage grouping"
        } ]
      },
      "subject": {
        "reference": "Patient/5098a39800d97f3939da3ee42943b863a227d051c05789f223880279dc077203"
      },
      "focus": [ {
        "reference": "Condition/9b5cabc4facc22d2681d7b63c3986487f3646a7ad8c10f95d96db8ea5fe29c33"
      } ],
      "effectiveDateTime": "2020-02-01",
      "valueCodeableConcept": {
        "coding": [ {
          "system": "https://www.uicc.org/resources/tnm",
          "code": "II",
          "display": "Stadium II"
        } ]
      },
      "method": {
        "coding": [ {
          "system": "https://www.medizininformatik-initiative.de/fhir/ext/modul-onko/CodeSystem/mii-cs-onko-tnm-version",
          "code": "8"
        } ]
      },
      "hasMember": [ {
        "reference": "Observation/1ff73eb27ae3401e2b225af819e56cce291aefaadc80bfd54526ea23f52ebc42"
      }, {
        "reference": "Observation/813e7d8c91cb0a0c3bb617dbdd15e0e6932c3374096084f182a664786f82d8e5"
      }, {
        "reference": "Observation/71c2ddb19edb36d41f938440694a745802fe9386d74238abb43282a8f9bbad4b"
      } ]
    },
    "request": {
      "method": "PUT",
      "url": "Observation/77e4e817cf9792f97f94a4a4946a103fc7b6dffd2f567fd9f08f125acd9b682f"
    }
  }, {
    "fullUrl": "Procedure/398852aa92c6b718005eb2355a76581e7069f8c7afebff30ec6e722b10574966",
    "resource": {
      "resourceType": "Procedure",
      "id": "398852aa92c6b718005eb2355a76581e7069f8c7afebff30ec6e722b10574966",
      "meta": {
        "profile": [ "https://www.medizininformatik-initiative.de/fhir/ext/modul-onko/StructureDefinition/mii-pr-onko-operation" ]
      },
      "extension": [ {
        "url": "https://www.medizininformatik-initiative.de/fhir/ext/modul-onko/StructureDefinition/mii-ex-onko-operation-intention",
        "valueCodeableConcept": {
          "coding": [ {
            "system": "https://www.medizininformatik-initiative.de/fhir/ext/modul-onko/CodeSystem/mii-cs-onko-intention",
            "code": "K"
          } ]
        }
      } ],
      "identifier": [ {
        "system": "https://bzkf.github.io/obds-to-fhir/identifiers/operation-procedure-id",
        "value": "1685-672.0"
      } ],
      "status": "completed",
      "category": {
        "coding": [ {
          "system": "http://snomed.info/sct",
          "code": "387713003",
          "display": "Surgical procedure"
        } ]
      },
      "code": {
        "coding": [ {
          "system": "http://fhir.de/CodeSystem/bfarm/ops",
          "version": "2020",
          "code": "5-672.0"
        } ]
      },
      "subject": {
        "reference": "Patient/5098a39800d97f3939da3ee42943b863a227d051c05789f223880279dc077203"
      },
      "performedDateTime": "2020-03-01",
      "reasonReference": [ {
        "reference": "Condition/9b5cabc4facc22d2681d7b63c3986487f3646a7ad8c10f95d96db8ea5fe29c33"
      } ]
    },
    "request": {
      "method": "PUT",
      "url": "Procedure/398852aa92c6b718005eb2355a76581e7069f8c7afebff30ec6e722b10574966"
    }
  }, {
    "fullUrl": "Procedure/097d5ab597fa27e4ce45bb8930a97a8b1bafd93273dc2f41fb5ac7a3656337ec",
    "resource": {
      "resourceType": "Procedure",
      "id": "097d5ab597fa27e4ce45bb8930a97a8b1bafd93273dc2f41fb5ac7a3656337ec",
      "meta": {
        "profile": [ "https://www.medizininformatik-initiative.de/fhir/ext/modul-onko/StructureDefinition/mii-pr-onko-systemische-therapie" ]
      },
      "extension": [ {
        "url": "https://www.medizininformatik-initiative.de/fhir/ext/modul-onko/StructureDefinition/mii-ex-onko-systemische-therapie-intention",
        "valueCodeableConcept": {
          "coding": [ {
            "system": "https://www.medizininformatik-initiative.de/fhir/ext/modul-onko/CodeSystem/mii-cs-onko-intention",
            "code": "K"
          } ]
        }
      }, {
        "url": "https://www.medizininformatik-initiative.de/fhir/ext/modul-onko/StructureDefinition/mii-ex-onko-strahlentherapie-stellungzurop",
        "valueCodeableConcept": {
          "coding": [ {
            "system": "https://www.medizininformatik-initiative.de/fhir/ext/modul-onko/CodeSystem/mii-cs-therapie-stellungzurop",
            "code": "A"
          } ]
        }
      } ],
      "identifier": [ {
        "system": "https://bzkf.github.io/obds-to-fhir/identifiers/systemische-therapie-procedure-id",
        "value": "70_1_IN_1"
      } ],
      "status": "completed",
      "category": {
        "coding": [ {
          "system": "http://snomed.info/sct",
          "code": "18629005"
        } ]
      },
      "code": {
        "coding": [ {
          "system": "http://fhir.de/CodeSystem/bfarm/ops",
          "code": "8-54"
        }, {
          "system": "https://www.medizininformatik-initiative.de/fhir/ext/modul-onko/CodeSystem/mii-cs-onko-therapie-typ",
          "code": "CH"
        } ]
      },
      "subject": {
        "reference": "Patient/5098a39800d97f3939da3ee42943b863a227d051c05789f223880279dc077203"
      },
      "performedPeriod": {
        "start": "2018-04-07",
        "end": "2018-05-15"
      },
      "outcome": {
        "coding": [ {
          "system": "https://www.medizininformatik-initiative.de/fhir/ext/modul-onko/CodeSystem/mii-cs-therapie-grund-ende",
          "code": "A"
        } ]
      }
    },
    "request": {
      "method": "PUT",
      "url": "Procedure/097d5ab597fa27e4ce45bb8930a97a8b1bafd93273dc2f41fb5ac7a3656337ec"
    }
  }, {
    "fullUrl": "MedicationStatement/17ba605ff2b4403d247bfd9625b84b5df622858f3fc73252bb4304e9ce6af6a4",
    "resource": {
      "resourceType": "MedicationStatement",
      "id": "17ba605ff2b4403d247bfd9625b84b5df622858f3fc73252bb4304e9ce6af6a4",
      "meta": {
        "profile": [ "https://www.medizininformatik-initiative.de/fhir/core/modul-medikation/StructureDefinition/MedicationStatement" ]
      },
      "identifier": [ {
        "system": "https://bzkf.github.io/obds-to-fhir/identifiers/systemische-therapie-medication-statement-id",
        "value": "70_1_IN_1_Cisplatin_bb7f"
      } ],
      "partOf": [ {
        "reference": "Procedure/097d5ab597fa27e4ce45bb8930a97a8b1bafd93273dc2f41fb5ac7a3656337ec"
      } ],
      "status": "completed",
      "medicationCodeableConcept": {
        "text": "Cisplatin"
      },
      "subject": {
        "reference": "Patient/5098a39800d97f3939da3ee42943b863a227d051c05789f223880279dc077203"
      },
      "effectivePeriod": {
        "start": "2018-04-07",
        "end": "2018-05-15"
      }
    },
    "request": {
      "method": "PUT",
      "url": "MedicationStatement/17ba605ff2b4403d247bfd9625b84b5df622858f3fc73252bb4304e9ce6af6a4"
    }
  }, {
    "fullUrl": "MedicationStatement/9e18c5f8cfb935dbfd738d461861b12ffd9472f9bd5fa09b4e097bc26fd86060",
    "resource": {
      "resourceType": "MedicationStatement",
      "id": "9e18c5f8cfb935dbfd738d461861b12ffd9472f9bd5fa09b4e097bc26fd86060",
      "meta": {
        "profile": [ "https://www.medizininformatik-initiative.de/fhir/core/modul-medikation/StructureDefinition/MedicationStatement" ]
      },
      "identifier": [ {
        "system": "https://bzkf.github.io/obds-to-fhir/identifiers/systemische-therapie-medication-statement-id",
        "value": "70_1_IN_1_Etoposid_bcc5"
      } ],
      "partOf": [ {
        "reference": "Procedure/097d5ab597fa27e4ce45bb8930a97a8b1bafd93273dc2f41fb5ac7a3656337ec"
      } ],
      "status": "completed",
      "medicationCodeableConcept": {
        "text": "Etoposid"
      },
      "subject": {
        "reference": "Patient/5098a39800d97f3939da3ee42943b863a227d051c05789f223880279dc077203"
      },
      "effectivePeriod": {
        "start": "2018-04-07",
        "end": "2018-05-15"
      }
    },
    "request": {
      "method": "PUT",
      "url": "MedicationStatement/9e18c5f8cfb935dbfd738d461861b12ffd9472f9bd5fa09b4e097bc26fd86060"
    }
  }, {
    "fullUrl": "Procedure/ccdd51a21130b11d65b4e5e496e12de49fb70218f9c355d487f9b453a57a7ec0",
    "resource": {
      "resourceType": "Procedure",
      "id": "ccdd51a21130b11d65b4e5e496e12de49fb70218f9c355d487f9b453a57a7ec0",
      "meta": {
        "profile": [ "https://www.medizininformatik-initiative.de/fhir/ext/modul-onko/StructureDefinition/mii-pr-onko-systemische-therapie" ]
      },
      "extension": [ {
        "url": "https://www.medizininformatik-initiative.de/fhir/ext/modul-onko/StructureDefinition/mii-ex-onko-systemische-therapie-intention",
        "valueCodeableConcept": {
          "coding": [ {
            "system": "https://www.medizininformatik-initiative.de/fhir/ext/modul-onko/CodeSystem/mii-cs-onko-intention",
            "code": "K"
          } ]
        }
      }, {
        "url": "https://www.medizininformatik-initiative.de/fhir/ext/modul-onko/StructureDefinition/mii-ex-onko-strahlentherapie-stellungzurop",
        "valueCodeableConcept": {
          "coding": [ {
            "system": "https://www.medizininformatik-initiative.de/fhir/ext/modul-onko/CodeSystem/mii-cs-therapie-stellungzurop",
            "code": "A"
          } ]
        }
      } ],
      "identifier": [ {
        "system": "https://bzkf.github.io/obds-to-fhir/identifiers/systemische-therapie-procedure-id",
        "value": "17_1_IN_2"
      } ],
      "status": "in-progress",
      "category": {
        "coding": [ {
          "system": "http://snomed.info/sct",
          "code": "18629005"
        } ]
      },
      "code": {
        "coding": [ {
          "system": "http://fhir.de/CodeSystem/bfarm/ops",
          "code": "8-54"
        }, {
          "system": "https://www.medizininformatik-initiative.de/fhir/ext/modul-onko/CodeSystem/mii-cs-onko-therapie-typ",
          "code": "CH"
        } ]
      },
      "subject": {
        "reference": "Patient/5098a39800d97f3939da3ee42943b863a227d051c05789f223880279dc077203"
      },
      "performedPeriod": {
        "start": "2018-06-15"
      }
    },
    "request": {
      "method": "PUT",
      "url": "Procedure/ccdd51a21130b11d65b4e5e496e12de49fb70218f9c355d487f9b453a57a7ec0"
    }
  }, {
    "fullUrl": "MedicationStatement/870ef1978aba599fbfcb949ae39cea4bdeaf7961d142064b11f482080ded9a78",
    "resource": {
      "resourceType": "MedicationStatement",
      "id": "870ef1978aba599fbfcb949ae39cea4bdeaf7961d142064b11f482080ded9a78",
      "meta": {
        "profile": [ "https://www.medizininformatik-initiative.de/fhir/core/modul-medikation/StructureDefinition/MedicationStatement" ]
      },
      "identifier": [ {
        "system": "https://bzkf.github.io/obds-to-fhir/identifiers/systemische-therapie-medication-statement-id",
        "value": "17_1_IN_2_Carboplatin_1f2d"
      } ],
      "partOf": [ {
        "reference": "Procedure/ccdd51a21130b11d65b4e5e496e12de49fb70218f9c355d487f9b453a57a7ec0"
      } ],
      "status": "active",
      "medicationCodeableConcept": {
        "text": "Carboplatin"
      },
      "subject": {
        "reference": "Patient/5098a39800d97f3939da3ee42943b863a227d051c05789f223880279dc077203"
      },
      "effectivePeriod": {
        "start": "2018-06-15"
      }
    },
    "request": {
      "method": "PUT",
      "url": "MedicationStatement/870ef1978aba599fbfcb949ae39cea4bdeaf7961d142064b11f482080ded9a78"
    }
  }, {
    "fullUrl": "MedicationStatement/a4445c220a40c4227211dc0210f96be8fbfdd3080a0b23f258589e4b376dd8de",
    "resource": {
      "resourceType": "MedicationStatement",
      "id": "a4445c220a40c4227211dc0210f96be8fbfdd3080a0b23f258589e4b376dd8de",
      "meta": {
        "profile": [ "https://www.medizininformatik-initiative.de/fhir/core/modul-medikation/StructureDefinition/MedicationStatement" ]
      },
      "identifier": [ {
        "system": "https://bzkf.github.io/obds-to-fhir/identifiers/systemische-therapie-medication-statement-id",
        "value": "17_1_IN_2_Etoposid_bcc5"
      } ],
      "partOf": [ {
        "reference": "Procedure/ccdd51a21130b11d65b4e5e496e12de49fb70218f9c355d487f9b453a57a7ec0"
      } ],
      "status": "active",
      "medicationCodeableConcept": {
        "text": "Etoposid"
      },
      "subject": {
        "reference": "Patient/5098a39800d97f3939da3ee42943b863a227d051c05789f223880279dc077203"
      },
      "effectivePeriod": {
        "start": "2018-06-15"
      }
    },
    "request": {
      "method": "PUT",
      "url": "MedicationStatement/a4445c220a40c4227211dc0210f96be8fbfdd3080a0b23f258589e4b376dd8de"
    }
  }, {
    "fullUrl": "Observation/dcf2f38da5f7af9085fc27236981774c5b29241dc14128f9cf186a1e9f53eba4",
    "resource": {
      "resourceType": "Observation",
      "id": "dcf2f38da5f7af9085fc27236981774c5b29241dc14128f9cf186a1e9f53eba4",
      "meta": {
        "profile": [ "https://www.medizininformatik-initiative.de/fhir/ext/modul-onko/StructureDefinition/mii-pr-onko-verlauf" ]
      },
      "identifier": [ {
        "system": "https://bzkf.github.io/obds-to-fhir/identifiers/observation-verlauf-id",
        "value": "195"
      } ],
      "status": "final",
      "code": {
        "coding": [ {
          "system": "http://snomed.info/sct",
          "code": "396432002",
          "display": "Status of regression of tumor (observable entity)"
        } ]
      },
      "subject": {
        "reference": "Patient/5098a39800d97f3939da3ee42943b863a227d051c05789f223880279dc077203"
      },
      "focus": [ {
        "reference": "Condition/9b5cabc4facc22d2681d7b63c3986487f3646a7ad8c10f95d96db8ea5fe29c33"
      } ],
      "effectiveDateTime": "2020-08-05",
      "valueCodeableConcept": {
        "coding": [ {
          "system": "https://www.medizininformatik-initiative.de/fhir/ext/modul-onko/CodeSystem/mii-cs-onko-verlauf-gesamtbeurteilung",
          "code": "V",
          "display": "Vollremission"
        } ]
      },
      "component": [ {
        "code": {
          "coding": [ {
            "system": "http://snomed.info/sct",
            "code": "277062004",
            "display": "Status des Residualtumors"
          } ]
        },
        "valueCodeableConcept": {
          "coding": [ {
            "system": "https://www.medizininformatik-initiative.de/fhir/ext/modul-onko/CodeSystem/mii-cs-onko-verlauf-primaertumor",
            "code": "K",
            "display": "kein Tumor nachweisbar"
          } ]
        }
      }, {
        "code": {
          "coding": [ {
            "system": "http://snomed.info/sct",
            "code": "399656008",
            "display": "Status of tumor metastasis to regional lymph nodes (observable entity)"
          } ]
        },
        "valueCodeableConcept": {
          "coding": [ {
            "system": "https://www.medizininformatik-initiative.de/fhir/ext/modul-onko/CodeSystem/mii-cs-onko-verlauf-lymphknoten",
            "code": "K",
            "display": "kein Lymphknotenbefall nachweisbar"
          } ]
        }
      }, {
        "code": {
          "coding": [ {
            "system": "http://snomed.info/sct",
            "code": "399608002",
            "display": "Status of distant metastasis (observable entity)"
          } ]
        },
        "valueCodeableConcept": {
          "coding": [ {
            "system": "https://www.medizininformatik-initiative.de/fhir/ext/modul-onko/CodeSystem/mii-cs-onko-verlauf-fernmetastasen",
            "code": "K",
            "display": "keine Fernmetastasen nachweisbar"
          } ]
        }
      } ]
    },
    "request": {
      "method": "PUT",
      "url": "Observation/dcf2f38da5f7af9085fc27236981774c5b29241dc14128f9cf186a1e9f53eba4"
    }
  }, {
    "fullUrl": "Observation/a63d7c6f9d11baff4c48250580b878e76082b61d8a947258e639a8e2e1fe5b4d",
    "resource": {
      "resourceType": "Observation",
      "id": "a63d7c6f9d11baff4c48250580b878e76082b61d8a947258e639a8e2e1fe5b4d",
      "meta": {
        "profile": [ "https://www.medizininformatik-initiative.de/fhir/ext/modul-onko/StructureDefinition/mii-pr-onko-allgemeiner-leistungszustand-ecog" ]
      },
      "identifier": [ {
        "system": "https://bzkf.github.io/obds-to-fhir/identifiers/allgemeiner-leistungszustand-ecog-id",
        "value": "ECOG-VER_17105"
      } ],
      "status": "final",
      "code": {
        "coding": [ {
          "system": "http://snomed.info/sct",
          "code": "423740007"
        } ]
      },
      "subject": {
        "reference": "Patient/5098a39800d97f3939da3ee42943b863a227d051c05789f223880279dc077203"
      },
      "focus": [ {
        "reference": "Condition/9b5cabc4facc22d2681d7b63c3986487f3646a7ad8c10f95d96db8ea5fe29c33"
      } ],
      "effectiveDateTime": "2020-08-05",
      "valueCodeableConcept": {
        "coding": [ {
          "system": "https://www.medizininformatik-initiative.de/fhir/ext/modul-onko/CodeSystem/mii-cs-onko-allgemeiner-leistungszustand-ecog",
          "code": "1",
          "display": "Einschränkung bei körperlicher Anstrengung, aber gehfähig; leichte körperliche Arbeit bzw. Arbeit im Sitzen (z. B. leichte Hausarbeit oder Büroarbeit) möglich (70 - 80 % nach Karnofsky)"
        } ]
      }
    },
    "request": {
      "method": "PUT",
      "url": "Observation/a63d7c6f9d11baff4c48250580b878e76082b61d8a947258e639a8e2e1fe5b4d"
    }
  }, {
    "fullUrl": "Observation/855d162733724763587320167d7b27cd6d2afa3d2c1d60b3e2b4b1fa08cb9695",
    "resource": {
      "resourceType": "Observation",
      "id": "855d162733724763587320167d7b27cd6d2afa3d2c1d60b3e2b4b1fa08cb9695",
      "meta": {
        "profile": [ "https://www.medizininformatik-initiative.de/fhir/ext/modul-onko/StructureDefinition/mii-pr-onko-tod" ]
      },
      "identifier": [ {
        "system": "https://bzkf.github.io/obds-to-fhir/identifiers/tod-observation-id",
        "value": "67_T98.3"
      } ],
      "status": "final",
      "code": {
        "coding": [ {
          "system": "http://snomed.info/sct",
          "code": "184305005"
        } ]
      },
      "subject": {
        "reference": "Patient/5098a39800d97f3939da3ee42943b863a227d051c05789f223880279dc077203"
      },
      "focus": [ {
        "reference": "Condition/9b5cabc4facc22d2681d7b63c3986487f3646a7ad8c10f95d96db8ea5fe29c33"
      } ],
      "effectiveDateTime": "2023-09-01",
      "valueCodeableConcept": {
        "coding": [ {
          "system": "http://fhir.de/CodeSystem/bfarm/icd-10-gm",
          "version": "2020",
          "code": "T98.3"
        } ]
      },
      "interpretation": [ {
        "coding": [ {
          "system": "https://www.medizininformatik-initiative.de/fhir/ext/modul-onko/CodeSystem/mii-cs-onko-tod",
          "code": "N"
        } ]
      } ]
    },
    "request": {
      "method": "PUT",
      "url": "Observation/855d162733724763587320167d7b27cd6d2afa3d2c1d60b3e2b4b1fa08cb9695"
    }
  } ]
}