{
  "resourceType": "Bundle",
  "id": "23283daf4d699cc4b3e9d01cd4ce1344cd94f9f9769dfd88da68b2b696332d48",
  "type": "transaction",
  "entry": [ {
    "fullUrl": "Patient/23283daf4d699cc4b3e9d01cd4ce1344cd94f9f9769dfd88da68b2b696332d48",
    "resource": {
      "resourceType": "Patient",
      "id": "23283daf4d699cc4b3e9d01cd4ce1344cd94f9f9769dfd88da68b2b696332d48",
      "meta": {
        "profile": [ "https://www.medizininformatik-initiative.de/fhir/core/modul-person/StructureDefinition/PatientPseudonymisiert" ]
      },
      "identifier": [ {
        "type": {
          "coding": [ {
            "system": "http://terminology.hl7.org/CodeSystem/v2-0203",
            "code": "MR",
            "display": "Medical record number"
          }, {
            "system": "http://terminology.hl7.org/CodeSystem/v3-ObservationValue",
            "code": "PSEUDED",
            "display": "pseudonymized"
          } ]
        },
        "system": "https://bzkf.github.io/obds-to-fhir/identifiers/patient-id",
        "value": "80"
      } ],
      "gender": "male",
      "birthDate": "1952-03-05",
      "address": [ {
        "type": "both",
        "postalCode": "90402",
        "_country": {
          "extension": [ {
            "url": "http://hl7.org/fhir/StructureDefinition/data-absent-reason",
            "valueCode": "unknown"
          } ]
        }
      } ]
    },
    "request": {
      "method": "PUT",
      "url": "Patient/23283daf4d699cc4b3e9d01cd4ce1344cd94f9f9769dfd88da68b2b696332d48"
    }
  }, {
    "fullUrl": "Procedure/8659f4d846974b09913924a61cb54295e498ab8d1ea36861883c13c3b291c6c1",
    "resource": {
      "resourceType": "Procedure",
      "id": "8659f4d846974b09913924a61cb54295e498ab8d1ea36861883c13c3b291c6c1",
      "meta": {
        "profile": [ "https://www.medizininformatik-initiative.de/fhir/ext/modul-onko/StructureDefinition/mii-pr-onko-strahlentherapie" ]
      },
      "extension": [ {
        "url": "https://www.medizininformatik-initiative.de/fhir/ext/modul-onko/StructureDefinition/mii-ex-onko-strahlentherapie-intention",
        "valueCodeableConcept": {
          "coding": [ {
            "system": "https://www.medizininformatik-initiative.de/fhir/ext/modul-onko/CodeSystem/mii-cs-onko-intention",
            "code": "K"
          } ]
        }
      }, {
        "url": "https://www.medizininformatik-initiative.de/fhir/ext/modul-onko/StructureDefinition/mii-ex-onko-strahlentherapie-stellungzurop",
        "valueCodeableConcept": {
          "coding": [ {
            "system": "https://www.medizininformatik-initiative.de/fhir/ext/modul-onko/CodeSystem/mii-cs-therapie-stellungzurop",
            "code": "A"
          } ]
        }
      }, {
        "url": "https://www.medizininformatik-initiative.de/fhir/ext/modul-onko/StructureDefinition/mii-ex-onko-strahlentherapie-bestrahlung",
        "extension": [ {
          "url": "Applikationsart",
          "valueCodeableConcept": {
            "coding": [ {
              "system": "https://www.medizininformatik-initiative.de/fhir/ext/modul-onko/CodeSystem/mii-cs-onko-strahlentherapie-applikationsart",
              "code": "PRCN"
            } ]
          }
        }, {
          "url": "Zielgebiet",
          "valueCodeableConcept": {
            "coding": [ {
              "system": "https://www.medizininformatik-initiative.de/fhir/ext/modul-onko/CodeSystem/mii-cs-onko-strahlentherapie-zielgebiet",
              "code": "5.4"
            } ]
          }
        }, {
          "url": "Zielgebiet_Lateralitaet",
          "valueCodeableConcept": {
            "coding": [ {
              "system": "https://www.medizininformatik-initiative.de/fhir/ext/modul-onko/CodeSystem/mii-cs-onko-seitenlokalisation",
              "code": "T"
            } ]
          }
        } ]
      }, {
        "url": "https://www.medizininformatik-initiative.de/fhir/ext/modul-onko/StructureDefinition/mii-ex-onko-strahlentherapie-bestrahlung",
        "extension": [ {
          "url": "Applikationsart",
          "valueCodeableConcept": {
            "coding": [ {
              "system": "https://www.medizininformatik-initiative.de/fhir/ext/modul-onko/CodeSystem/mii-cs-onko-strahlentherapie-applikationsart",
              "code": "PRCN"
            } ]
          }
        }, {
          "url": "Zielgebiet",
          "valueCodeableConcept": {
            "coding": [ {
              "system": "https://www.medizininformatik-initiative.de/fhir/ext/modul-onko/CodeSystem/mii-cs-onko-strahlentherapie-zielgebiet",
              "code": "9.10"
            } ]
          }
        }, {
          "url": "Zielgebiet_Lateralitaet",
          "valueCodeableConcept": {
            "coding": [ {
              "system": "https://www.medizininformatik-initiative.de/fhir/ext/modul-onko/CodeSystem/mii-cs-onko-seitenlokalisation",
              "code": "B"
            } ]
          }
        } ]
      } ],
      "identifier": [ {
        "system": "https://bzkf.github.io/obds-to-fhir/identifiers/strahlentherapie-procedure-id",
        "value": "80_1_RAD_1"
      } ],
      "status": "in-progress",
      "category": {
        "coding": [ {
          "system": "http://snomed.info/sct",
          "code": "1287742003",
          "display": "Radiotherapy (procedure)"
        } ]
      },
      "code": {
        "coding": [ {
          "system": "http://fhir.de/CodeSystem/bfarm/ops",
          "version": "2025",
          "code": "8-52",
          "display": "Strahlentherapie"
        } ]
      },
      "subject": {
        "reference": "Patient/23283daf4d699cc4b3e9d01cd4ce1344cd94f9f9769dfd88da68b2b696332d48"
      },
      "performedPeriod": {
        "start": "2020-07-06"
      },
      "reasonReference": [ {
        "reference": "Condition/864086c778055cfdcf52915c303af7bfa4941ae6f56fb931849319046b09108d"
      } ]
    },
    "request": {
      "method": "PUT",
      "url": "Procedure/8659f4d846974b09913924a61cb54295e498ab8d1ea36861883c13c3b291c6c1"
    }
  }, {
    "fullUrl": "Procedure/177d21a6e24969e5a639921f0688163978547b64fd65195940969b759984b142",
    "resource": {
      "resourceType": "Procedure",
      "id": "177d21a6e24969e5a639921f0688163978547b64fd65195940969b759984b142",
      "meta": {
        "profile": [ "https://www.medizininformatik-initiative.de/fhir/ext/modul-onko/StructureDefinition/mii-pr-onko-systemische-therapie" ]
      },
      "extension": [ {
        "url": "https://www.medizininformatik-initiative.de/fhir/ext/modul-onko/StructureDefinition/mii-ex-onko-systemische-therapie-intention",
        "valueCodeableConcept": {
          "coding": [ {
            "system": "https://www.medizininformatik-initiative.de/fhir/ext/modul-onko/CodeSystem/mii-cs-onko-intention",
            "code": "K"
          } ]
        }
      }, {
        "url": "https://www.medizininformatik-initiative.de/fhir/ext/modul-onko/StructureDefinition/mii-ex-onko-strahlentherapie-stellungzurop",
        "valueCodeableConcept": {
          "coding": [ {
            "system": "https://www.medizininformatik-initiative.de/fhir/ext/modul-onko/CodeSystem/mii-cs-therapie-stellungzurop",
            "code": "A"
          } ]
        }
      } ],
      "identifier": [ {
        "system": "https://bzkf.github.io/obds-to-fhir/identifiers/systemische-therapie-procedure-id",
        "value": "80_1_IN_1"
      } ],
      "status": "in-progress",
      "category": {
        "coding": [ {
          "system": "http://snomed.info/sct",
          "code": "18629005"
        } ]
      },
      "code": {
        "coding": [ {
          "system": "http://fhir.de/CodeSystem/bfarm/ops",
          "code": "6-00"
        }, {
          "system": "https://www.medizininformatik-initiative.de/fhir/ext/modul-onko/CodeSystem/mii-cs-onko-therapie-typ",
          "code": "HO"
        } ]
      },
      "subject": {
        "reference": "Patient/23283daf4d699cc4b3e9d01cd4ce1344cd94f9f9769dfd88da68b2b696332d48"
      },
      "performedPeriod": {
        "start": "2020-05-10"
      }
    },
    "request": {
      "method": "PUT",
      "url": "Procedure/177d21a6e24969e5a639921f0688163978547b64fd65195940969b759984b142"
    }
  }, {
    "fullUrl": "MedicationStatement/5e9ddff7fddf855fe13360dc82e163caf3b4fe1c82bef38b6fbada420bc06cbb",
    "resource": {
      "resourceType": "MedicationStatement",
      "id": "5e9ddff7fddf855fe13360dc82e163caf3b4fe1c82bef38b6fbada420bc06cbb",
      "meta": {
        "profile": [ "https://www.medizininformatik-initiative.de/fhir/core/modul-medikation/StructureDefinition/MedicationStatement" ]
      },
      "identifier": [ {
        "system": "https://bzkf.github.io/obds-to-fhir/identifiers/systemische-therapie-medication-statement-id",
        "value": "80_1_IN_1_Buserelin_b426"
      } ],
      "partOf": [ {
        "reference": "Procedure/177d21a6e24969e5a639921f0688163978547b64fd65195940969b759984b142"
      } ],
      "status": "active",
      "medicationCodeableConcept": {
        "text": "Buserelin"
      },
      "subject": {
        "reference": "Patient/23283daf4d699cc4b3e9d01cd4ce1344cd94f9f9769dfd88da68b2b696332d48"
      },
      "effectivePeriod": {
        "start": "2020-05-10"
      }
    },
    "request": {
      "method": "PUT",
      "url": "MedicationStatement/5e9ddff7fddf855fe13360dc82e163caf3b4fe1c82bef38b6fbada420bc06cbb"
    }
  }, {
    "fullUrl": "CarePlan/893ccaf0f99449d7ca78315b47ef45b1c8cbdc393d61ce34eaf9cbb71d7f89d9",
    "resource": {
      "resourceType": "CarePlan",
      "id": "893ccaf0f99449d7ca78315b47ef45b1c8cbdc393d61ce34eaf9cbb71d7f89d9",
      "meta": {
        "profile": [ "https://www.medizininformatik-initiative.de/fhir/ext/modul-onko/StructureDefinition/mii-pr-onko-tumorkonferenz" ]
      },
      "identifier": [ {
        "system": "https://bzkf.github.io/obds-to-fhir/identifiers/tumorkonferenz-id",
        "value": "Tumorkonferenz_112"
      } ],
      "status": "active",
      "intent": "plan",
      "category": [ {
        "coding": [ {
          "system": "https://www.medizininformatik-initiative.de/fhir/ext/modul-onko/CodeSystem/mii-cs-onko-therapieplanung-typ",
          "code": "praeth"
        } ]
      } ],
      "subject": {
        "reference": "Patient/23283daf4d699cc4b3e9d01cd4ce1344cd94f9f9769dfd88da68b2b696332d48"
      },
      "created": "2020-05-25",
      "addresses": [ {
        "reference": "Condition/864086c778055cfdcf52915c303af7bfa4941ae6f56fb931849319046b09108d"
      } ],
      "activity": [ {
        "detail": {
          "code": {
            "coding": [ {
              "system": "https://www.medizininformatik-initiative.de/fhir/ext/modul-onko/CodeSystem/mii-cs-onko-therapie-typ",
              "code": "OP"
            } ]
          },
          "status": "unknown",
          "statusReason": {
            "coding": [ {
              "system": "https://www.medizininformatik-initiative.de/fhir/ext/modul-onko/CodeSystem/mii-cs-onko-therapieabweichung",
              "code": "U"
            } ]
          }
        }
      }, {
        "detail": {
          "code": {
            "coding": [ {
              "system": "https://www.medizininformatik-initiative.de/fhir/ext/modul-onko/CodeSystem/mii-cs-onko-therapie-typ",
              "code": "ST"
            } ]
          },
          "status": "unknown",
          "statusReason": {
            "coding": [ {
              "system": "https://www.medizininformatik-initiative.de/fhir/ext/modul-onko/CodeSystem/mii-cs-onko-therapieabweichung",
              "code": "U"
            } ]
          }
        }
      } ]
    },
    "request": {
      "method": "PUT",
      "url": "CarePlan/893ccaf0f99449d7ca78315b47ef45b1c8cbdc393d61ce34eaf9cbb71d7f89d9"
    }
  }, {
    "fullUrl": "CarePlan/c9e7d4ea562c8104ebdbf354f57317226b6a60e557e0a8f29eee45395948b063",
    "resource": {
      "resourceType": "CarePlan",
      "id": "c9e7d4ea562c8104ebdbf354f57317226b6a60e557e0a8f29eee45395948b063",
      "meta": {
        "profile": [ "https://www.medizininformatik-initiative.de/fhir/ext/modul-onko/StructureDefinition/mii-pr-onko-tumorkonferenz" ]
      },
      "identifier": [ {
        "system": "https://bzkf.github.io/obds-to-fhir/identifiers/tumorkonferenz-id",
        "value": "Tumorkonferenz_113"
      } ],
      "status": "completed",
      "intent": "plan",
      "category": [ {
        "coding": [ {
          "system": "https://www.medizininformatik-initiative.de/fhir/ext/modul-onko/CodeSystem/mii-cs-onko-therapieplanung-typ",
          "code": "postop"
        } ]
      } ],
      "subject": {
        "reference": "Patient/23283daf4d699cc4b3e9d01cd4ce1344cd94f9f9769dfd88da68b2b696332d48"
      },
      "created": "2020-06-10",
      "addresses": [ {
        "reference": "Condition/864086c778055cfdcf52915c303af7bfa4941ae6f56fb931849319046b09108d"
      } ],
      "activity": [ {
        "detail": {
          "code": {
            "coding": [ {
              "system": "https://www.medizininformatik-initiative.de/fhir/ext/modul-onko/CodeSystem/mii-cs-onko-therapie-typ",
              "code": "ST"
            } ]
          },
          "status": "unknown",
          "statusReason": {
            "coding": [ {
              "system": "https://www.medizininformatik-initiative.de/fhir/ext/modul-onko/CodeSystem/mii-cs-onko-therapieabweichung",
              "code": "U"
            } ]
          }
        }
      }, {
        "detail": {
          "code": {
            "coding": [ {
              "system": "https://www.medizininformatik-initiative.de/fhir/ext/modul-onko/CodeSystem/mii-cs-onko-therapie-typ",
              "code": "HO"
            } ]
          },
          "status": "unknown",
          "statusReason": {
            "coding": [ {
              "system": "https://www.medizininformatik-initiative.de/fhir/ext/modul-onko/CodeSystem/mii-cs-onko-therapieabweichung",
              "code": "U"
            } ]
          }
        }
      } ]
    },
    "request": {
      "method": "PUT",
      "url": "CarePlan/c9e7d4ea562c8104ebdbf354f57317226b6a60e557e0a8f29eee45395948b063"
    }
  }, {
    "fullUrl": "Procedure/01fe10e7214221155d118ef5991a5666bad77fad0c85fa0f60678057e0ae1fb9",
    "resource": {
      "resourceType": "Procedure",
      "id": "01fe10e7214221155d118ef5991a5666bad77fad0c85fa0f60678057e0ae1fb9",
      "meta": {
        "profile": [ "https://www.medizininformatik-initiative.de/fhir/ext/modul-onko/StructureDefinition/mii-pr-onko-operation" ]
      },
      "extension": [ {
        "url": "https://www.medizininformatik-initiative.de/fhir/ext/modul-onko/StructureDefinition/mii-ex-onko-operation-intention",
        "valueCodeableConcept": {
          "coding": [ {
            "system": "https://www.medizininformatik-initiative.de/fhir/ext/modul-onko/CodeSystem/mii-cs-onko-intention",
            "code": "K"
          } ]
        }
      } ],
      "identifier": [ {
        "system": "https://bzkf.github.io/obds-to-fhir/identifiers/operation-procedure-id",
        "value": "1475-604.12"
      } ],
      "status": "completed",
      "category": {
        "coding": [ {
          "system": "http://snomed.info/sct",
          "code": "387713003",
          "display": "Surgical procedure"
        } ]
      },
      "code": {
        "coding": [ {
          "system": "http://fhir.de/CodeSystem/bfarm/ops",
          "version": "2022",
          "code": "5-604.12"
        } ]
      },
      "subject": {
        "reference": "Patient/23283daf4d699cc4b3e9d01cd4ce1344cd94f9f9769dfd88da68b2b696332d48"
      },
      "performedDateTime": "2020-06-01",
      "reasonReference": [ {
        "reference": "Condition/864086c778055cfdcf52915c303af7bfa4941ae6f56fb931849319046b09108d"
      } ],
      "outcome": {
        "coding": [ {
          "system": "https://www.medizininformatik-initiative.de/fhir/ext/modul-onko/CodeSystem/mii-cs-onko-residualstatus",
          "code": "R0"
        } ]
      }
    },
    "request": {
      "method": "PUT",
      "url": "Procedure/01fe10e7214221155d118ef5991a5666bad77fad0c85fa0f60678057e0ae1fb9"
    }
  }, {
    "fullUrl": "Observation/a042c87268385397f8c5fcb146773ffdaebb26e5accbb5a16823e0c78be0c63f",
    "resource": {
      "resourceType": "Observation",
      "id": "a042c87268385397f8c5fcb146773ffdaebb26e5accbb5a16823e0c78be0c63f",
      "identifier": [ {
        "system": "https://bzkf.github.io/obds-to-fhir/identifiers/residualstatus-observation-id",
        "value": "147"
      } ],
      "status": "final",
      "code": {
        "coding": [ {
          "system": "http://loinc.org",
          "code": "84892-9"
        } ]
      },
      "subject": {
        "reference": "Patient/23283daf4d699cc4b3e9d01cd4ce1344cd94f9f9769dfd88da68b2b696332d48"
      },
      "focus": [ {
        "reference": "Condition/864086c778055cfdcf52915c303af7bfa4941ae6f56fb931849319046b09108d"
      } ],
      "effectiveDateTime": "2020-06-01",
      "valueCodeableConcept": {
        "coding": [ {
          "system": "https://www.medizininformatik-initiative.de/fhir/ext/modul-onko/CodeSystem/mii-cs-onko-residualstatus",
          "code": "R0"
        } ]
      }
    },
    "request": {
      "method": "PUT",
      "url": "Observation/a042c87268385397f8c5fcb146773ffdaebb26e5accbb5a16823e0c78be0c63f"
    }
  }, {
    "fullUrl": "Specimen/260ee9c6e60cb4b3bfc1973fd3a671e66b0f16e015502fab46b91ba79e08bf80",
    "resource": {
      "resourceType": "Specimen",
      "id": "260ee9c6e60cb4b3bfc1973fd3a671e66b0f16e015502fab46b91ba79e08bf80",
      "meta": {
        "profile": [ "https://www.medizininformatik-initiative.de/fhir/ext/modul-onko/StructureDefinition/mii-pr-onko-specimen" ]
      },
      "identifier": [ {
        "system": "https://bzkf.github.io/obds-to-fhir/identifiers/specimen-id",
        "value": "274"
      } ],
      "accessionIdentifier": {
        "value": "H16789/2020"
      },
      "subject": {
        "reference": "Patient/23283daf4d699cc4b3e9d01cd4ce1344cd94f9f9769dfd88da68b2b696332d48"
      },
      "collection": {
        "collectedDateTime": "2020-06-01"
      }
    },
    "request": {
      "method": "PUT",
      "url": "Specimen/260ee9c6e60cb4b3bfc1973fd3a671e66b0f16e015502fab46b91ba79e08bf80"
    }
  }, {
    "fullUrl": "Observation/44505b29f98be092f6d6fae3842290073aa722e4c6bb167f2a630a76fb1a3853",
    "resource": {
      "resourceType": "Observation",
      "id": "44505b29f98be092f6d6fae3842290073aa722e4c6bb167f2a630a76fb1a3853",
      "meta": {
        "profile": [ "https://www.medizininformatik-initiative.de/fhir/ext/modul-onko/StructureDefinition/mii-pr-onko-histologie-icdo3" ]
      },
      "identifier": [ {
        "system": "https://bzkf.github.io/obds-to-fhir/identifiers/observation-histologie-id",
        "value": "274-ICDO3-8140/3"
      } ],
      "status": "final",
      "code": {
        "coding": [ {
          "system": "http://loinc.org",
          "code": "59847-4"
        } ]
      },
      "subject": {
        "reference": "Patient/23283daf4d699cc4b3e9d01cd4ce1344cd94f9f9769dfd88da68b2b696332d48"
      },
      "focus": [ {
        "reference": "Condition/864086c778055cfdcf52915c303af7bfa4941ae6f56fb931849319046b09108d"
      } ],
      "effectiveDateTime": "2020-06-01",
      "valueCodeableConcept": {
        "coding": [ {
          "system": "http://terminology.hl7.org/CodeSystem/icd-o-3",
          "version": "31",
          "code": "8140/3"
        } ],
        "text": "Adenokarzinom o.n.A."
      },
      "specimen": {
        "reference": "Specimen/260ee9c6e60cb4b3bfc1973fd3a671e66b0f16e015502fab46b91ba79e08bf80"
      }
    },
    "request": {
      "method": "PUT",
      "url": "Observation/44505b29f98be092f6d6fae3842290073aa722e4c6bb167f2a630a76fb1a3853"
    }
  }, {
    "fullUrl": "Observation/b7cf082240ac3d351f12600867f9ce383fbf1b0d367ed4998b1690095de92f3e",
    "resource": {
      "resourceType": "Observation",
      "id": "b7cf082240ac3d351f12600867f9ce383fbf1b0d367ed4998b1690095de92f3e",
      "meta": {
        "profile": [ "https://www.medizininformatik-initiative.de/fhir/ext/modul-onko/StructureDefinition/mii-pr-onko-grading" ]
      },
      "identifier": [ {
        "system": "https://bzkf.github.io/obds-to-fhir/identifiers/grading-observation-id",
        "value": "274-grading"
      } ],
      "status": "final",
      "category": [ {
        "coding": [ {
          "system": "http://terminology.hl7.org/CodeSystem/observation-category",
          "code": "laboratory"
        } ]
      } ],
      "code": {
        "coding": [ {
          "system": "http://loinc.org",
          "code": "33732-9"
        }, {
          "system": "http://snomed.info/sct",
          "code": "371469007"
        } ]
      },
      "subject": {
        "reference": "Patient/23283daf4d699cc4b3e9d01cd4ce1344cd94f9f9769dfd88da68b2b696332d48"
      },
      "focus": [ {
        "reference": "Condition/864086c778055cfdcf52915c303af7bfa4941ae6f56fb931849319046b09108d"
      } ],
      "effectiveDateTime": "2020-06-01",
      "valueCodeableConcept": {
        "coding": [ {
          "system": "https://www.medizininformatik-initiative.de/fhir/ext/modul-onko/CodeSystem/mii-cs-onko-grading",
          "code": "T"
        } ]
      },
      "specimen": {
        "reference": "Specimen/260ee9c6e60cb4b3bfc1973fd3a671e66b0f16e015502fab46b91ba79e08bf80"
      }
    },
    "request": {
      "method": "PUT",
      "url": "Observation/b7cf082240ac3d351f12600867f9ce383fbf1b0d367ed4998b1690095de92f3e"
    }
  }, {
    "fullUrl": "Observation/540037231e4309e8edfde9e68ef73b1761c42f035b0f250710d75170c04baa5d",
    "resource": {
      "resourceType": "Observation",
      "id": "540037231e4309e8edfde9e68ef73b1761c42f035b0f250710d75170c04baa5d",
      "meta": {
        "profile": [ "https://www.medizininformatik-initiative.de/fhir/ext/modul-onko/StructureDefinition/mii-pr-onko-anzahl-befallene-lymphknoten" ]
      },
      "identifier": [ {
        "system": "https://bzkf.github.io/obds-to-fhir/identifiers/observation-histologie-id",
        "value": "274_befallen"
      } ],
      "status": "final",
      "category": [ {
        "coding": [ {
          "system": "http://terminology.hl7.org/CodeSystem/observation-category",
          "code": "laboratory"
        } ]
      } ],
      "code": {
        "coding": [ {
          "system": "http://loinc.org",
          "code": "21893-3"
        }, {
          "system": "http://snomed.info/sct",
          "code": "443527007"
        } ]
      },
      "subject": {
        "reference": "Patient/23283daf4d699cc4b3e9d01cd4ce1344cd94f9f9769dfd88da68b2b696332d48"
      },
      "focus": [ {
        "reference": "Condition/864086c778055cfdcf52915c303af7bfa4941ae6f56fb931849319046b09108d"
      } ],
      "effectiveDateTime": "2020-06-01",
      "valueQuantity": {
        "value": 3,
        "unit": "#",
        "system": "http://unitsofmeasure.org",
        "code": "1"
      },
      "specimen": {
        "reference": "Specimen/260ee9c6e60cb4b3bfc1973fd3a671e66b0f16e015502fab46b91ba79e08bf80"
      }
    },
    "request": {
      "method": "PUT",
      "url": "Observation/540037231e4309e8edfde9e68ef73b1761c42f035b0f250710d75170c04baa5d"
    }
  }, {
    "fullUrl": "Observation/fb6d887b3e8472785171c92c032278e93216544a3b9a8b876ea6dbc6a6f44940",
    "resource": {
      "resourceType": "Observation",
      "id": "fb6d887b3e8472785171c92c032278e93216544a3b9a8b876ea6dbc6a6f44940",
      "meta": {
        "profile": [ "https://www.medizininformatik-initiative.de/fhir/ext/modul-onko/StructureDefinition/mii-pr-onko-anzahl-untersuchte-lymphknoten" ]
      },
      "identifier": [ {
        "system": "https://bzkf.github.io/obds-to-fhir/identifiers/observation-histologie-id",
        "value": "274_untersucht"
      } ],
      "status": "final",
      "category": [ {
        "coding": [ {
          "system": "http://terminology.hl7.org/CodeSystem/observation-category",
          "code": "laboratory"
        } ]
      } ],
      "code": {
        "coding": [ {
          "system": "http://loinc.org",
          "code": "21894-1"
        }, {
          "system": "http://snomed.info/sct",
          "code": "444025001"
        } ]
      },
      "subject": {
        "reference": "Patient/23283daf4d699cc4b3e9d01cd4ce1344cd94f9f9769dfd88da68b2b696332d48"
      },
      "focus": [ {
        "reference": "Condition/864086c778055cfdcf52915c303af7bfa4941ae6f56fb931849319046b09108d"
      } ],
      "effectiveDateTime": "2020-06-01",
      "valueQuantity": {
        "value": 10,
        "unit": "#",
        "system": "http://unitsofmeasure.org",
        "code": "1"
      },
      "specimen": {
        "reference": "Specimen/260ee9c6e60cb4b3bfc1973fd3a671e66b0f16e015502fab46b91ba79e08bf80"
      }
    },
    "request": {
      "method": "PUT",
      "url": "Observation/fb6d887b3e8472785171c92c032278e93216544a3b9a8b876ea6dbc6a6f44940"
    }
  }, {
    "fullUrl": "Observation/0119fe12f395af8612623727c15ba399403531a79041fc58701bf59e42db20d2",
    "resource": {
      "resourceType": "Observation",
      "id": "0119fe12f395af8612623727c15ba399403531a79041fc58701bf59e42db20d2",
      "meta": {
        "profile": [ "https://www.medizininformatik-initiative.de/fhir/ext/modul-onko/StructureDefinition/mii-pr-onko-studienteilnahme" ]
      },
      "identifier": [ {
        "system": "https://bzkf.github.io/obds-to-fhir/identifiers/studienteilnahme-id",
        "value": "OP_80105_Studienteilnahme"
      } ],
      "status": "final",
      "code": {
        "coding": [ {
          "system": "http://snomed.info/sct",
          "code": "709491003",
          "display": "Enrollment in clinical trial (procedure)"
        } ]
      },
      "subject": {
        "reference": "Patient/23283daf4d699cc4b3e9d01cd4ce1344cd94f9f9769dfd88da68b2b696332d48"
      },
      "focus": [ {
        "reference": "Condition/864086c778055cfdcf52915c303af7bfa4941ae6f56fb931849319046b09108d"
      } ],
      "valueCodeableConcept": {
        "coding": [ {
          "system": "https://www.medizininformatik-initiative.de/fhir/ext/modul-onko/CodeSystem/mii-cs-onko-studienteilnahme",
          "code": "N"
        } ]
      }
    },
    "request": {
      "method": "PUT",
      "url": "Observation/0119fe12f395af8612623727c15ba399403531a79041fc58701bf59e42db20d2"
    }
  }, {
    "fullUrl": "Observation/d050d94ce239bd0dd83b6f325b5c2526d5a102ac22802573270e16b769156e31",
    "resource": {
      "resourceType": "Observation",
      "id": "d050d94ce239bd0dd83b6f325b5c2526d5a102ac22802573270e16b769156e31",
      "meta": {
        "profile": [ "https://www.medizininformatik-initiative.de/fhir/ext/modul-onko/StructureDefinition/mii-pr-onko-tnm-t-kategorie" ]
      },
      "identifier": [ {
        "system": "https://bzkf.github.io/obds-to-fhir/identifiers/tnm-t-kategorie-observation-id",
        "value": "257_T"
      } ],
      "status": "final",
      "code": {
        "extension": [ {
          "url": "https://www.medizininformatik-initiative.de/fhir/ext/modul-onko/StructureDefinition/mii-ex-onko-tnm-cp-praefix",
          "valueCodeableConcept": {
            "coding": [ {
              "system": "https://www.uicc.org/resources/tnm",
              "code": "p"
            } ]
          }
        } ],
        "coding": [ {
          "system": "http://snomed.info/sct",
          "code": "384625004",
          "display": "pT category (observable entity)"
        } ]
      },
      "subject": {
        "reference": "Patient/23283daf4d699cc4b3e9d01cd4ce1344cd94f9f9769dfd88da68b2b696332d48"
      },
      "focus": [ {
        "reference": "Condition/864086c778055cfdcf52915c303af7bfa4941ae6f56fb931849319046b09108d"
      } ],
      "effectiveDateTime": "2020-06-01",
      "valueCodeableConcept": {
        "coding": [ {
          "system": "https://www.uicc.org/resources/tnm",
          "code": "T2b"
        } ]
      },
      "method": {
        "coding": [ {
          "system": "https://www.medizininformatik-initiative.de/fhir/ext/modul-onko/CodeSystem/mii-cs-onko-tnm-version",
          "code": "8"
        } ]
      }
    },
    "request": {
      "method": "PUT",
      "url": "Observation/d050d94ce239bd0dd83b6f325b5c2526d5a102ac22802573270e16b769156e31"
    }
  }, {
    "fullUrl": "Observation/3f354d79d84d8fb3b6516e06d7db0e9427751c8501d4474937047d3d3f77c66b",
    "resource": {
      "resourceType": "Observation",
      "id": "3f354d79d84d8fb3b6516e06d7db0e9427751c8501d4474937047d3d3f77c66b",
      "meta": {
        "profile": [ "https://www.medizininformatik-initiative.de/fhir/ext/modul-onko/StructureDefinition/mii-pr-onko-tnm-n-kategorie" ]
      },
      "identifier": [ {
        "system": "https://bzkf.github.io/obds-to-fhir/identifiers/tnm-n-kategorie-observation-id",
        "value": "257_N"
      } ],
      "status": "final",
      "code": {
        "extension": [ {
          "url": "https://www.medizininformatik-initiative.de/fhir/ext/modul-onko/StructureDefinition/mii-ex-onko-tnm-cp-praefix",
          "valueCodeableConcept": {
            "coding": [ {
              "system": "https://www.uicc.org/resources/tnm",
              "code": "p"
            } ]
          }
        } ],
        "coding": [ {
          "system": "http://snomed.info/sct",
          "code": "371494008",
          "display": "pN category (observable entity)"
        } ]
      },
      "subject": {
        "reference": "Patient/23283daf4d699cc4b3e9d01cd4ce1344cd94f9f9769dfd88da68b2b696332d48"
      },
      "focus": [ {
        "reference": "Condition/864086c778055cfdcf52915c303af7bfa4941ae6f56fb931849319046b09108d"
      } ],
      "effectiveDateTime": "2020-06-01",
      "valueCodeableConcept": {
        "coding": [ {
          "system": "https://www.uicc.org/resources/tnm",
          "code": "N1"
        } ]
      },
      "method": {
        "coding": [ {
          "system": "https://www.medizininformatik-initiative.de/fhir/ext/modul-onko/CodeSystem/mii-cs-onko-tnm-version",
          "code": "8"
        } ]
      }
    },
    "request": {
      "method": "PUT",
      "url": "Observation/3f354d79d84d8fb3b6516e06d7db0e9427751c8501d4474937047d3d3f77c66b"
    }
  }, {
    "fullUrl": "Observation/e237770362e16a868f066041a7c5e8fac25603c3ab2438a3d320c06af65100e7",
    "resource": {
      "resourceType": "Observation",
      "id": "e237770362e16a868f066041a7c5e8fac25603c3ab2438a3d320c06af65100e7",
      "meta": {
        "profile": [ "https://www.medizininformatik-initiative.de/fhir/ext/modul-onko/StructureDefinition/mii-pr-onko-tnm-m-kategorie" ]
      },
      "identifier": [ {
        "system": "https://bzkf.github.io/obds-to-fhir/identifiers/tnm-m-kategorie-observation-id",
        "value": "257_M"
      } ],
      "status": "final",
      "code": {
        "extension": [ {
          "url": "https://www.medizininformatik-initiative.de/fhir/ext/modul-onko/StructureDefinition/mii-ex-onko-tnm-cp-praefix",
          "valueCodeableConcept": {
            "coding": [ {
              "system": "https://www.uicc.org/resources/tnm",
              "code": "c"
            } ]
          }
        } ],
        "coding": [ {
          "system": "http://snomed.info/sct",
          "code": "399387003",
          "display": "cM category (observable entity)"
        } ]
      },
      "subject": {
        "reference": "Patient/23283daf4d699cc4b3e9d01cd4ce1344cd94f9f9769dfd88da68b2b696332d48"
      },
      "focus": [ {
        "reference": "Condition/864086c778055cfdcf52915c303af7bfa4941ae6f56fb931849319046b09108d"
      } ],
      "effectiveDateTime": "2020-06-01",
      "valueCodeableConcept": {
        "coding": [ {
          "system": "https://www.uicc.org/resources/tnm",
          "code": "M0"
        } ]
      },
      "method": {
        "coding": [ {
          "system": "https://www.medizininformatik-initiative.de/fhir/ext/modul-onko/CodeSystem/mii-cs-onko-tnm-version",
          "code": "8"
        } ]
      }
    },
    "request": {
      "method": "PUT",
      "url": "Observation/e237770362e16a868f066041a7c5e8fac25603c3ab2438a3d320c06af65100e7"
    }
  }, {
    "fullUrl": "Observation/dcc7d66164c224d918db7895c22a711d6acd15ea4ffa833aed39f91aa67a3150",
    "resource": {
      "resourceType": "Observation",
      "id": "dcc7d66164c224d918db7895c22a711d6acd15ea4ffa833aed39f91aa67a3150",
      "meta": {
        "profile": [ "https://www.medizininformatik-initiative.de/fhir/ext/modul-onko/StructureDefinition/mii-pr-onko-tnm-l-kategorie" ]
      },
      "identifier": [ {
        "system": "https://bzkf.github.io/obds-to-fhir/identifiers/tnm-l-kategorie-observation-id",
        "value": "257_L"
      } ],
      "status": "final",
      "code": {
        "coding": [ {
          "system": "http://snomed.info/sct",
          "code": "395715009"
        } ]
      },
      "subject": {
        "reference": "Patient/23283daf4d699cc4b3e9d01cd4ce1344cd94f9f9769dfd88da68b2b696332d48"
      },
      "focus": [ {
        "reference": "Condition/864086c778055cfdcf52915c303af7bfa4941ae6f56fb931849319046b09108d"
      } ],
      "effectiveDateTime": "2020-06-01",
      "valueCodeableConcept": {
        "coding": [ {
          "system": "https://www.uicc.org/resources/tnm",
          "code": "L1"
        } ]
      },
      "method": {
        "coding": [ {
          "system": "https://www.medizininformatik-initiative.de/fhir/ext/modul-onko/CodeSystem/mii-cs-onko-tnm-version",
          "code": "8"
        } ]
      }
    },
    "request": {
      "method": "PUT",
      "url": "Observation/dcc7d66164c224d918db7895c22a711d6acd15ea4ffa833aed39f91aa67a3150"
    }
  }, {
    "fullUrl": "Observation/a4e303a3c9f7130235a1217153f0b5a9c978262e104f97a6108745b7af4a4c95",
    "resource": {
      "resourceType": "Observation",
      "id": "a4e303a3c9f7130235a1217153f0b5a9c978262e104f97a6108745b7af4a4c95",
      "meta": {
        "profile": [ "https://www.medizininformatik-initiative.de/fhir/ext/modul-onko/StructureDefinition/mii-pr-onko-tnm-pn-kategorie" ]
      },
      "identifier": [ {
        "system": "https://bzkf.github.io/obds-to-fhir/identifiers/tnm-pn-kategorie-observation-id",
        "value": "257_Pn"
      } ],
      "status": "final",
      "code": {
        "coding": [ {
          "system": "http://snomed.info/sct",
          "code": "371513001"
        } ]
      },
      "subject": {
        "reference": "Patient/23283daf4d699cc4b3e9d01cd4ce1344cd94f9f9769dfd88da68b2b696332d48"
      },
      "focus": [ {
        "reference": "Condition/864086c778055cfdcf52915c303af7bfa4941ae6f56fb931849319046b09108d"
      } ],
      "effectiveDateTime": "2020-06-01",
      "valueCodeableConcept": {
        "coding": [ {
          "system": "https://www.uicc.org/resources/tnm",
          "code": "Pn1"
        } ]
      },
      "method": {
        "coding": [ {
          "system": "https://www.medizininformatik-initiative.de/fhir/ext/modul-onko/CodeSystem/mii-cs-onko-tnm-version",
          "code": "8"
        } ]
      }
    },
    "request": {
      "method": "PUT",
      "url": "Observation/a4e303a3c9f7130235a1217153f0b5a9c978262e104f97a6108745b7af4a4c95"
    }
  }, {
    "fullUrl": "Observation/db7ffe273a8d89281ddd6d074db3bcc8e27c8dfc7f0815a0e474632ac3961a71",
    "resource": {
      "resourceType": "Observation",
      "id": "db7ffe273a8d89281ddd6d074db3bcc8e27c8dfc7f0815a0e474632ac3961a71",
      "meta": {
        "profile": [ "https://www.medizininformatik-initiative.de/fhir/ext/modul-onko/StructureDefinition/mii-pr-onko-tnm-v-kategorie" ]
      },
      "identifier": [ {
        "system": "https://bzkf.github.io/obds-to-fhir/identifiers/tnm-v-kategorie-observation-id",
        "value": "257_V"
      } ],
      "status": "final",
      "code": {
        "coding": [ {
          "system": "http://snomed.info/sct",
          "code": "371493002"
        } ]
      },
      "subject": {
        "reference": "Patient/23283daf4d699cc4b3e9d01cd4ce1344cd94f9f9769dfd88da68b2b696332d48"
      },
      "focus": [ {
        "reference": "Condition/864086c778055cfdcf52915c303af7bfa4941ae6f56fb931849319046b09108d"
      } ],
      "effectiveDateTime": "2020-06-01",
      "valueCodeableConcept": {
        "coding": [ {
          "system": "https://www.uicc.org/resources/tnm",
          "code": "V0"
        } ]
      },
      "method": {
        "coding": [ {
          "system": "https://www.medizininformatik-initiative.de/fhir/ext/modul-onko/CodeSystem/mii-cs-onko-tnm-version",
          "code": "8"
        } ]
      }
    },
    "request": {
      "method": "PUT",
      "url": "Observation/db7ffe273a8d89281ddd6d074db3bcc8e27c8dfc7f0815a0e474632ac3961a71"
    }
  }, {
    "fullUrl": "Observation/c2c37787be75fee5766d1338c04e79c8d11620bdbf889ea83e6386d4a7580c51",
    "resource": {
      "resourceType": "Observation",
      "id": "c2c37787be75fee5766d1338c04e79c8d11620bdbf889ea83e6386d4a7580c51",
      "meta": {
        "profile": [ "https://www.medizininformatik-initiative.de/fhir/ext/modul-onko/StructureDefinition/mii-pr-onko-tnm-klassifikation" ]
      },
      "identifier": [ {
        "system": "https://bzkf.github.io/obds-to-fhir/identifiers/tnm-grouping-observation-id",
        "value": "257"
      } ],
      "status": "final",
      "code": {
        "coding": [ {
          "system": "http://snomed.info/sct",
          "code": "399390009",
          "display": "TNM stage grouping"
        } ]
      },
      "subject": {
        "reference": "Patient/23283daf4d699cc4b3e9d01cd4ce1344cd94f9f9769dfd88da68b2b696332d48"
      },
      "focus": [ {
        "reference": "Condition/864086c778055cfdcf52915c303af7bfa4941ae6f56fb931849319046b09108d"
      } ],
      "effectiveDateTime": "2020-06-01",
      "valueCodeableConcept": {
        "coding": [ {
          "system": "https://www.uicc.org/resources/tnm",
          "code": "IV",
          "display": "Stadium IV"
        } ]
      },
      "method": {
        "coding": [ {
          "system": "https://www.medizininformatik-initiative.de/fhir/ext/modul-onko/CodeSystem/mii-cs-onko-tnm-version",
          "code": "8"
        } ]
      },
      "hasMember": [ {
        "reference": "Observation/d050d94ce239bd0dd83b6f325b5c2526d5a102ac22802573270e16b769156e31"
      }, {
        "reference": "Observation/3f354d79d84d8fb3b6516e06d7db0e9427751c8501d4474937047d3d3f77c66b"
      }, {
        "reference": "Observation/e237770362e16a868f066041a7c5e8fac25603c3ab2438a3d320c06af65100e7"
      }, {
        "reference": "Observation/dcc7d66164c224d918db7895c22a711d6acd15ea4ffa833aed39f91aa67a3150"
      }, {
        "reference": "Observation/a4e303a3c9f7130235a1217153f0b5a9c978262e104f97a6108745b7af4a4c95"
      }, {
        "reference": "Observation/db7ffe273a8d89281ddd6d074db3bcc8e27c8dfc7f0815a0e474632ac3961a71"
      } ]
    },
    "request": {
      "method": "PUT",
      "url": "Observation/c2c37787be75fee5766d1338c04e79c8d11620bdbf889ea83e6386d4a7580c51"
    }
  }, {
    "fullUrl": "Observation/36a33df5231dcb1b597e02f82ebad5844bc7b7cea22ba76657d6b74e52e53617",
    "resource": {
      "resourceType": "Observation",
      "id": "36a33df5231dcb1b597e02f82ebad5844bc7b7cea22ba76657d6b74e52e53617",
      "identifier": [ {
        "system": "https://bzkf.github.io/obds-to-fhir/identifiers/gleason-score-observation-id",
        "value": "gleason-score-OP_80105"
      } ],
      "status": "final",
      "code": {
        "coding": [ {
          "system": "http://snomed.info/sct",
          "code": "385377005",
          "display": "Gleason grade finding for prostatic cancer (finding)"
        } ]
      },
      "subject": {
        "reference": "Patient/23283daf4d699cc4b3e9d01cd4ce1344cd94f9f9769dfd88da68b2b696332d48"
      },
      "focus": [ {
        "reference": "Condition/864086c778055cfdcf52915c303af7bfa4941ae6f56fb931849319046b09108d"
      } ],
      "effectiveDateTime": "2020-06-01",
      "valueCodeableConcept": {
        "coding": [ {
          "extension": [ {
            "url": "http://hl7.org/fhir/StructureDefinition/ordinalValue",
            "valueDecimal": 8
          } ],
          "system": "http://snomed.info/sct",
          "code": "33013007"
        } ],
        "text": "8"
      },
      "method": {
        "coding": [ {
          "system": "http://snomed.info/sct",
          "code": "65801008",
          "display": "Excision (procedure)"
        } ]
      },
      "component": [ {
        "code": {
          "coding": [ {
            "system": "http://snomed.info/sct",
            "code": "384994009",
            "display": "Primary Gleason pattern"
          } ]
        },
        "valueInteger": 4
      }, {
        "code": {
          "coding": [ {
            "system": "http://snomed.info/sct",
            "code": "384995005",
            "display": "Secondary Gleason pattern"
          } ]
        },
        "valueInteger": 4
      } ]
    },
    "request": {
      "method": "PUT",
      "url": "Observation/36a33df5231dcb1b597e02f82ebad5844bc7b7cea22ba76657d6b74e52e53617"
    }
  }, {
    "fullUrl": "Condition/864086c778055cfdcf52915c303af7bfa4941ae6f56fb931849319046b09108d",
    "resource": {
      "resourceType": "Condition",
      "id": "864086c778055cfdcf52915c303af7bfa4941ae6f56fb931849319046b09108d",
      "meta": {
        "profile": [ "https://www.medizininformatik-initiative.de/fhir/ext/modul-onko/StructureDefinition/mii-pr-onko-diagnose-primaertumor" ]
      },
      "extension": [ {
        "url": "https://www.medizininformatik-initiative.de/fhir/ext/modul-onko/StructureDefinition/mii-ex-onko-histology-morphology-behavior-icdo3",
        "valueCodeableConcept": {
          "coding": [ {
            "system": "http://terminology.hl7.org/CodeSystem/icd-o-3",
            "version": "31",
            "code": "8140/3"
          } ]
        }
      }, {
        "url": "http://hl7.org/fhir/StructureDefinition/condition-assertedDate",
        "valueDateTime": "2020-05-10"
      } ],
      "identifier": [ {
        "system": "https://bzkf.github.io/obds-to-fhir/identifiers/primaerdiagnose-id",
        "value": "801"
      } ],
      "verificationStatus": {
        "coding": [ {
          "system": "http://terminology.hl7.org/CodeSystem/condition-ver-status",
          "code": "confirmed"
        }, {
          "system": "https://www.medizininformatik-initiative.de/fhir/ext/modul-onko/CodeSystem/mii-cs-onko-primaertumor-diagnosesicherung",
          "code": "7"
        } ]
      },
      "code": {
        "coding": [ {
          "system": "http://fhir.de/CodeSystem/bfarm/icd-10-gm",
          "version": "2020",
          "code": "C61"
        } ]
      },
      "bodySite": [ {
        "coding": [ {
          "system": "http://terminology.hl7.org/CodeSystem/icd-o-3",
          "version": "33",
          "code": "C61.9"
        } ]
      }, {
        "coding": [ {
          "system": "https://www.medizininformatik-initiative.de/fhir/ext/modul-onko/CodeSystem/mii-cs-onko-seitenlokalisation",
          "code": "T"
        } ]
      } ],
      "subject": {
        "reference": "Patient/23283daf4d699cc4b3e9d01cd4ce1344cd94f9f9769dfd88da68b2b696332d48"
      },
      "recordedDate": "2024-02-16"
    },
    "request": {
      "method": "PUT",
      "url": "Condition/864086c778055cfdcf52915c303af7bfa4941ae6f56fb931849319046b09108d"
    }
  }, {
    "fullUrl": "Observation/33ffb713694408e707d2cdcc4ce660a637c11a9470ca973e8a62f4354d950d9c",
    "resource": {
      "resourceType": "Observation",
      "id": "33ffb713694408e707d2cdcc4ce660a637c11a9470ca973e8a62f4354d950d9c",
      "meta": {
        "profile": [ "https://www.medizininformatik-initiative.de/fhir/ext/modul-onko/StructureDefinition/mii-pr-onko-allgemeiner-leistungszustand-ecog" ]
      },
      "identifier": [ {
        "system": "https://bzkf.github.io/obds-to-fhir/identifiers/allgemeiner-leistungszustand-ecog-id",
        "value": "ECOG-DIA_80106"
      } ],
      "status": "final",
      "code": {
        "coding": [ {
          "system": "http://snomed.info/sct",
          "code": "423740007"
        } ]
      },
      "subject": {
        "reference": "Patient/23283daf4d699cc4b3e9d01cd4ce1344cd94f9f9769dfd88da68b2b696332d48"
      },
      "focus": [ {
        "reference": "Condition/864086c778055cfdcf52915c303af7bfa4941ae6f56fb931849319046b09108d"
      } ],
      "effectiveDateTime": "2020-05-10",
      "valueCodeableConcept": {
        "coding": [ {
          "system": "https://www.medizininformatik-initiative.de/fhir/ext/modul-onko/CodeSystem/mii-cs-onko-allgemeiner-leistungszustand-ecog",
          "code": "0",
          "display": "Normale, uneingeschränkte Aktivität wie vor der Erkrankung (90 - 100 % nach Karnofsky)"
        } ]
      }
    },
    "request": {
      "method": "PUT",
      "url": "Observation/33ffb713694408e707d2cdcc4ce660a637c11a9470ca973e8a62f4354d950d9c"
    }
  }, {
    "fullUrl": "Specimen/35f6eb71938cb4443e61bcb09fd51d291354c3230ec55e6e6b0d934830013046",
    "resource": {
      "resourceType": "Specimen",
      "id": "35f6eb71938cb4443e61bcb09fd51d291354c3230ec55e6e6b0d934830013046",
      "meta": {
        "profile": [ "https://www.medizininformatik-initiative.de/fhir/ext/modul-onko/StructureDefinition/mii-pr-onko-specimen" ]
      },
      "identifier": [ {
        "system": "https://bzkf.github.io/obds-to-fhir/identifiers/specimen-id",
        "value": "275"
      } ],
      "accessionIdentifier": {
        "value": "H14672/2020"
      },
      "subject": {
        "reference": "Patient/23283daf4d699cc4b3e9d01cd4ce1344cd94f9f9769dfd88da68b2b696332d48"
      },
      "collection": {
        "collectedDateTime": "2020-05-10"
      }
    },
    "request": {
      "method": "PUT",
      "url": "Specimen/35f6eb71938cb4443e61bcb09fd51d291354c3230ec55e6e6b0d934830013046"
    }
  }, {
    "fullUrl": "Observation/4946bba529d73a0b0ad27502117798e37f426a61ffdff87b421b2d09e1d07124",
    "resource": {
      "resourceType": "Observation",
      "id": "4946bba529d73a0b0ad27502117798e37f426a61ffdff87b421b2d09e1d07124",
      "meta": {
        "profile": [ "https://www.medizininformatik-initiative.de/fhir/ext/modul-onko/StructureDefinition/mii-pr-onko-histologie-icdo3" ]
      },
      "identifier": [ {
        "system": "https://bzkf.github.io/obds-to-fhir/identifiers/observation-histologie-id",
        "value": "275-ICDO3-8140/3"
      } ],
      "status": "final",
      "code": {
        "coding": [ {
          "system": "http://loinc.org",
          "code": "59847-4"
        } ]
      },
      "subject": {
        "reference": "Patient/23283daf4d699cc4b3e9d01cd4ce1344cd94f9f9769dfd88da68b2b696332d48"
      },
      "focus": [ {
        "reference": "Condition/864086c778055cfdcf52915c303af7bfa4941ae6f56fb931849319046b09108d"
      } ],
      "effectiveDateTime": "2020-05-10",
      "valueCodeableConcept": {
        "coding": [ {
          "system": "http://terminology.hl7.org/CodeSystem/icd-o-3",
          "version": "31",
          "code": "8140/3"
        } ],
        "text": "Adenokarzinom o.n.A."
      },
      "specimen": {
        "reference": "Specimen/35f6eb71938cb4443e61bcb09fd51d291354c3230ec55e6e6b0d934830013046"
      }
    },
    "request": {
      "method": "PUT",
      "url": "Observation/4946bba529d73a0b0ad27502117798e37f426a61ffdff87b421b2d09e1d07124"
    }
  }, {
    "fullUrl": "Observation/c5973b2674e2efe25549a9aad0e5e63ac5a1aad18057623dc9670d24c2c5421d",
    "resource": {
      "resourceType": "Observation",
      "id": "c5973b2674e2efe25549a9aad0e5e63ac5a1aad18057623dc9670d24c2c5421d",
      "meta": {
        "profile": [ "https://www.medizininformatik-initiative.de/fhir/ext/modul-onko/StructureDefinition/mii-pr-onko-grading" ]
      },
      "identifier": [ {
        "system": "https://bzkf.github.io/obds-to-fhir/identifiers/grading-observation-id",
        "value": "275-grading"
      } ],
      "status": "final",
      "category": [ {
        "coding": [ {
          "system": "http://terminology.hl7.org/CodeSystem/observation-category",
          "code": "laboratory"
        } ]
      } ],
      "code": {
        "coding": [ {
          "system": "http://loinc.org",
          "code": "33732-9"
        }, {
          "system": "http://snomed.info/sct",
          "code": "371469007"
        } ]
      },
      "subject": {
        "reference": "Patient/23283daf4d699cc4b3e9d01cd4ce1344cd94f9f9769dfd88da68b2b696332d48"
      },
      "focus": [ {
        "reference": "Condition/864086c778055cfdcf52915c303af7bfa4941ae6f56fb931849319046b09108d"
      } ],
      "effectiveDateTime": "2020-05-10",
      "valueCodeableConcept": {
        "coding": [ {
          "system": "https://www.medizininformatik-initiative.de/fhir/ext/modul-onko/CodeSystem/mii-cs-onko-grading",
          "code": "T"
        } ]
      },
      "specimen": {
        "reference": "Specimen/35f6eb71938cb4443e61bcb09fd51d291354c3230ec55e6e6b0d934830013046"
      }
    },
    "request": {
      "method": "PUT",
      "url": "Observation/c5973b2674e2efe25549a9aad0e5e63ac5a1aad18057623dc9670d24c2c5421d"
    }
  }, {
    "fullUrl": "Observation/e6b89e56a40fbabaabbdca1e9e432e411d6fb1db94b11f625b1260c4b2147271",
    "resource": {
      "resourceType": "Observation",
      "id": "e6b89e56a40fbabaabbdca1e9e432e411d6fb1db94b11f625b1260c4b2147271",
      "meta": {
        "profile": [ "https://www.medizininformatik-initiative.de/fhir/ext/modul-onko/StructureDefinition/mii-pr-onko-tnm-t-kategorie" ]
      },
      "identifier": [ {
        "system": "https://bzkf.github.io/obds-to-fhir/identifiers/tnm-t-kategorie-observation-id",
        "value": "258_T"
      } ],
      "status": "final",
      "code": {
        "extension": [ {
          "url": "https://www.medizininformatik-initiative.de/fhir/ext/modul-onko/StructureDefinition/mii-ex-onko-tnm-cp-praefix",
          "valueCodeableConcept": {
            "coding": [ {
              "system": "https://www.uicc.org/resources/tnm",
              "code": "c"
            } ]
          }
        } ],
        "coding": [ {
          "system": "http://snomed.info/sct",
          "code": "399504009",
          "display": "cT category (observable entity)"
        } ]
      },
      "subject": {
        "reference": "Patient/23283daf4d699cc4b3e9d01cd4ce1344cd94f9f9769dfd88da68b2b696332d48"
      },
      "focus": [ {
        "reference": "Condition/864086c778055cfdcf52915c303af7bfa4941ae6f56fb931849319046b09108d"
      } ],
      "effectiveDateTime": "2020-05-10",
      "valueCodeableConcept": {
        "coding": [ {
          "system": "https://www.uicc.org/resources/tnm",
          "code": "T1c"
        } ]
      },
      "method": {
        "coding": [ {
          "system": "https://www.medizininformatik-initiative.de/fhir/ext/modul-onko/CodeSystem/mii-cs-onko-tnm-version",
          "code": "8"
        } ]
      }
    },
    "request": {
      "method": "PUT",
      "url": "Observation/e6b89e56a40fbabaabbdca1e9e432e411d6fb1db94b11f625b1260c4b2147271"
    }
  }, {
    "fullUrl": "Observation/f1dc37aa59501d44d5235f5d9d197030f5fd43ef93fbd53f5fc7ec89f257d34c",
    "resource": {
      "resourceType": "Observation",
      "id": "f1dc37aa59501d44d5235f5d9d197030f5fd43ef93fbd53f5fc7ec89f257d34c",
      "meta": {
        "profile": [ "https://www.medizininformatik-initiative.de/fhir/ext/modul-onko/StructureDefinition/mii-pr-onko-tnm-n-kategorie" ]
      },
      "identifier": [ {
        "system": "https://bzkf.github.io/obds-to-fhir/identifiers/tnm-n-kategorie-observation-id",
        "value": "258_N"
      } ],
      "status": "final",
      "code": {
        "extension": [ {
          "url": "https://www.medizininformatik-initiative.de/fhir/ext/modul-onko/StructureDefinition/mii-ex-onko-tnm-cp-praefix",
          "valueCodeableConcept": {
            "coding": [ {
              "system": "https://www.uicc.org/resources/tnm",
              "code": "c"
            } ]
          }
        } ],
        "coding": [ {
          "system": "http://snomed.info/sct",
          "code": "399534004",
          "display": "cN category (observable entity)"
        } ]
      },
      "subject": {
        "reference": "Patient/23283daf4d699cc4b3e9d01cd4ce1344cd94f9f9769dfd88da68b2b696332d48"
      },
      "focus": [ {
        "reference": "Condition/864086c778055cfdcf52915c303af7bfa4941ae6f56fb931849319046b09108d"
      } ],
      "effectiveDateTime": "2020-05-10",
      "valueCodeableConcept": {
        "coding": [ {
          "system": "https://www.uicc.org/resources/tnm",
          "code": "N0"
        } ]
      },
      "method": {
        "coding": [ {
          "system": "https://www.medizininformatik-initiative.de/fhir/ext/modul-onko/CodeSystem/mii-cs-onko-tnm-version",
          "code": "8"
        } ]
      }
    },
    "request": {
      "method": "PUT",
      "url": "Observation/f1dc37aa59501d44d5235f5d9d197030f5fd43ef93fbd53f5fc7ec89f257d34c"
    }
  }, {
    "fullUrl": "Observation/bdc40bc47d86334be2b81879d7c3595e81ac1081837623964a26ded04a863e13",
    "resource": {
      "resourceType": "Observation",
      "id": "bdc40bc47d86334be2b81879d7c3595e81ac1081837623964a26ded04a863e13",
      "meta": {
        "profile": [ "https://www.medizininformatik-initiative.de/fhir/ext/modul-onko/StructureDefinition/mii-pr-onko-tnm-m-kategorie" ]
      },
      "identifier": [ {
        "system": "https://bzkf.github.io/obds-to-fhir/identifiers/tnm-m-kategorie-observation-id",
        "value": "258_M"
      } ],
      "status": "final",
      "code": {
        "extension": [ {
          "url": "https://www.medizininformatik-initiative.de/fhir/ext/modul-onko/StructureDefinition/mii-ex-onko-tnm-cp-praefix",
          "valueCodeableConcept": {
            "coding": [ {
              "system": "https://www.uicc.org/resources/tnm",
              "code": "c"
            } ]
          }
        } ],
        "coding": [ {
          "system": "http://snomed.info/sct",
          "code": "399387003",
          "display": "cM category (observable entity)"
        } ]
      },
      "subject": {
        "reference": "Patient/23283daf4d699cc4b3e9d01cd4ce1344cd94f9f9769dfd88da68b2b696332d48"
      },
      "focus": [ {
        "reference": "Condition/864086c778055cfdcf52915c303af7bfa4941ae6f56fb931849319046b09108d"
      } ],
      "effectiveDateTime": "2020-05-10",
      "valueCodeableConcept": {
        "coding": [ {
          "system": "https://www.uicc.org/resources/tnm",
          "code": "M0"
        } ]
      },
      "method": {
        "coding": [ {
          "system": "https://www.medizininformatik-initiative.de/fhir/ext/modul-onko/CodeSystem/mii-cs-onko-tnm-version",
          "code": "8"
        } ]
      }
    },
    "request": {
      "method": "PUT",
      "url": "Observation/bdc40bc47d86334be2b81879d7c3595e81ac1081837623964a26ded04a863e13"
    }
  }, {
    "fullUrl": "Observation/6e9e182145975b6cb49e676e3401de4647069412a07792ad46f0259d573746a0",
    "resource": {
      "resourceType": "Observation",
      "id": "6e9e182145975b6cb49e676e3401de4647069412a07792ad46f0259d573746a0",
      "meta": {
        "profile": [ "https://www.medizininformatik-initiative.de/fhir/ext/modul-onko/StructureDefinition/mii-pr-onko-tnm-klassifikation" ]
      },
      "identifier": [ {
        "system": "https://bzkf.github.io/obds-to-fhir/identifiers/tnm-grouping-observation-id",
        "value": "258"
      } ],
      "status": "final",
      "code": {
        "coding": [ {
          "system": "http://snomed.info/sct",
          "code": "399537006",
          "display": "Clinical TNM stage grouping"
        } ]
      },
      "subject": {
        "reference": "Patient/23283daf4d699cc4b3e9d01cd4ce1344cd94f9f9769dfd88da68b2b696332d48"
      },
      "focus": [ {
        "reference": "Condition/864086c778055cfdcf52915c303af7bfa4941ae6f56fb931849319046b09108d"
      } ],
      "effectiveDateTime": "2020-05-10",
      "valueCodeableConcept": {
        "coding": [ {
          "system": "https://www.uicc.org/resources/tnm",
          "code": "I",
          "display": "Stadium I"
        } ]
      },
      "method": {
        "coding": [ {
          "system": "https://www.medizininformatik-initiative.de/fhir/ext/modul-onko/CodeSystem/mii-cs-onko-tnm-version",
          "code": "8"
        } ]
      },
      "hasMember": [ {
        "reference": "Observation/e6b89e56a40fbabaabbdca1e9e432e411d6fb1db94b11f625b1260c4b2147271"
      }, {
        "reference": "Observation/f1dc37aa59501d44d5235f5d9d197030f5fd43ef93fbd53f5fc7ec89f257d34c"
      }, {
        "reference": "Observation/bdc40bc47d86334be2b81879d7c3595e81ac1081837623964a26ded04a863e13"
      } ]
    },
    "request": {
      "method": "PUT",
      "url": "Observation/6e9e182145975b6cb49e676e3401de4647069412a07792ad46f0259d573746a0"
    }
  }, {
    "fullUrl": "Observation/3f871acb564cc3e785d1fdc5c39867fe9de2caf96feb535a0d0ea235b0ba7bc0",
    "resource": {
      "resourceType": "Observation",
      "id": "3f871acb564cc3e785d1fdc5c39867fe9de2caf96feb535a0d0ea235b0ba7bc0",
      "identifier": [ {
        "system": "https://bzkf.github.io/obds-to-fhir/identifiers/gleason-score-observation-id",
        "value": "gleason-score-DIA_80106"
      } ],
      "status": "final",
      "code": {
        "coding": [ {
          "system": "http://snomed.info/sct",
          "code": "385377005",
          "display": "Gleason grade finding for prostatic cancer (finding)"
        } ]
      },
      "subject": {
        "reference": "Patient/23283daf4d699cc4b3e9d01cd4ce1344cd94f9f9769dfd88da68b2b696332d48"
      },
      "focus": [ {
        "reference": "Condition/864086c778055cfdcf52915c303af7bfa4941ae6f56fb931849319046b09108d"
      } ],
      "effectiveDateTime": "2020-05-10",
      "valueCodeableConcept": {
        "coding": [ {
          "extension": [ {
            "url": "http://hl7.org/fhir/StructureDefinition/ordinalValue",
            "valueDecimal": 7
          } ],
          "system": "http://snomed.info/sct",
          "code": "57403001"
        } ],
        "text": "7b"
      },
      "method": {
        "coding": [ {
          "system": "http://snomed.info/sct",
          "code": "86273004",
          "display": "Biopsy (procedure)"
        } ]
      },
      "component": [ {
        "code": {
          "coding": [ {
            "system": "http://snomed.info/sct",
            "code": "384994009",
            "display": "Primary Gleason pattern"
          } ]
        },
        "valueInteger": 4
      }, {
        "code": {
          "coding": [ {
            "system": "http://snomed.info/sct",
            "code": "384995005",
            "display": "Secondary Gleason pattern"
          } ]
        },
        "valueInteger": 3
      } ]
    },
    "request": {
      "method": "PUT",
      "url": "Observation/3f871acb564cc3e785d1fdc5c39867fe9de2caf96feb535a0d0ea235b0ba7bc0"
    }
  }, {
    "fullUrl": "Observation/6d49dc7db0a4d68322f3d35ba2a1150b5cd98e0b1b09834df7a23ab16f730dbe",
    "resource": {
      "resourceType": "Observation",
      "id": "6d49dc7db0a4d68322f3d35ba2a1150b5cd98e0b1b09834df7a23ab16f730dbe",
      "meta": {
        "profile": [ "https://www.medizininformatik-initiative.de/fhir/ext/modul-onko/StructureDefinition/mii-pr-onko-verlauf" ]
      },
      "identifier": [ {
        "system": "https://bzkf.github.io/obds-to-fhir/identifiers/observation-verlauf-id",
        "value": "159"
      } ],
      "status": "final",
      "code": {
        "coding": [ {
          "system": "http://snomed.info/sct",
          "code": "396432002",
          "display": "Status of regression of tumor (observable entity)"
        } ]
      },
      "subject": {
        "reference": "Patient/23283daf4d699cc4b3e9d01cd4ce1344cd94f9f9769dfd88da68b2b696332d48"
      },
      "focus": [ {
        "reference": "Condition/864086c778055cfdcf52915c303af7bfa4941ae6f56fb931849319046b09108d"
      } ],
      "effectiveDateTime": "2020-10-14",
      "valueCodeableConcept": {
        "coding": [ {
          "system": "https://www.medizininformatik-initiative.de/fhir/ext/modul-onko/CodeSystem/mii-cs-onko-verlauf-gesamtbeurteilung",
          "code": "V",
          "display": "Vollremission"
        } ]
      },
      "component": [ {
        "code": {
          "coding": [ {
            "system": "http://snomed.info/sct",
            "code": "277062004",
            "display": "Status des Residualtumors"
          } ]
        },
        "valueCodeableConcept": {
          "coding": [ {
            "system": "https://www.medizininformatik-initiative.de/fhir/ext/modul-onko/CodeSystem/mii-cs-onko-verlauf-primaertumor",
            "code": "K",
            "display": "kein Tumor nachweisbar"
          } ]
        }
      }, {
        "code": {
          "coding": [ {
            "system": "http://snomed.info/sct",
            "code": "399656008",
            "display": "Status of tumor metastasis to regional lymph nodes (observable entity)"
          } ]
        },
        "valueCodeableConcept": {
          "coding": [ {
            "system": "https://www.medizininformatik-initiative.de/fhir/ext/modul-onko/CodeSystem/mii-cs-onko-verlauf-lymphknoten",
            "code": "K",
            "display": "kein Lymphknotenbefall nachweisbar"
          } ]
        }
      }, {
        "code": {
          "coding": [ {
            "system": "http://snomed.info/sct",
            "code": "399608002",
            "display": "Status of distant metastasis (observable entity)"
          } ]
        },
        "valueCodeableConcept": {
          "coding": [ {
            "system": "https://www.medizininformatik-initiative.de/fhir/ext/modul-onko/CodeSystem/mii-cs-onko-verlauf-fernmetastasen",
            "code": "K",
            "display": "keine Fernmetastasen nachweisbar"
          } ]
        }
      } ]
    },
    "request": {
      "method": "PUT",
      "url": "Observation/6d49dc7db0a4d68322f3d35ba2a1150b5cd98e0b1b09834df7a23ab16f730dbe"
    }
  }, {
    "fullUrl": "Observation/4eccc5f8d8499c776dffe9e481c7582889e29158fe5b8061825c69f9a904d42c",
    "resource": {
      "resourceType": "Observation",
      "id": "4eccc5f8d8499c776dffe9e481c7582889e29158fe5b8061825c69f9a904d42c",
      "meta": {
        "profile": [ "https://www.medizininformatik-initiative.de/fhir/ext/modul-onko/StructureDefinition/mii-pr-onko-allgemeiner-leistungszustand-ecog" ]
      },
      "identifier": [ {
        "system": "https://bzkf.github.io/obds-to-fhir/identifiers/allgemeiner-leistungszustand-ecog-id",
        "value": "ECOG-VER_80107"
      } ],
      "status": "final",
      "code": {
        "coding": [ {
          "system": "http://snomed.info/sct",
          "code": "423740007"
        } ]
      },
      "subject": {
        "reference": "Patient/23283daf4d699cc4b3e9d01cd4ce1344cd94f9f9769dfd88da68b2b696332d48"
      },
      "focus": [ {
        "reference": "Condition/864086c778055cfdcf52915c303af7bfa4941ae6f56fb931849319046b09108d"
      } ],
      "effectiveDateTime": "2020-10-14",
      "valueCodeableConcept": {
        "coding": [ {
          "system": "https://www.medizininformatik-initiative.de/fhir/ext/modul-onko/CodeSystem/mii-cs-onko-allgemeiner-leistungszustand-ecog",
          "code": "1",
          "display": "Einschränkung bei körperlicher Anstrengung, aber gehfähig; leichte körperliche Arbeit bzw. Arbeit im Sitzen (z. B. leichte Hausarbeit oder Büroarbeit) möglich (70 - 80 % nach Karnofsky)"
        } ]
      }
    },
    "request": {
      "method": "PUT",
      "url": "Observation/4eccc5f8d8499c776dffe9e481c7582889e29158fe5b8061825c69f9a904d42c"
    }
  } ]
}