{
  "resourceType": "Bundle",
  "id": "a02e16474896f1d528cac71f2c9b4c45ac3c9028e3a53fb414a1f7882991ee07",
  "type": "transaction",
  "entry": [ {
    "fullUrl": "Patient/a02e16474896f1d528cac71f2c9b4c45ac3c9028e3a53fb414a1f7882991ee07",
    "resource": {
      "resourceType": "Patient",
      "id": "a02e16474896f1d528cac71f2c9b4c45ac3c9028e3a53fb414a1f7882991ee07",
      "meta": {
        "profile": [ "https://www.medizininformatik-initiative.de/fhir/core/modul-person/StructureDefinition/PatientPseudonymisiert" ]
      },
      "identifier": [ {
        "type": {
          "coding": [ {
            "system": "http://terminology.hl7.org/CodeSystem/v2-0203",
            "code": "MR",
            "display": "Medical record number"
          }, {
            "system": "http://terminology.hl7.org/CodeSystem/v3-ObservationValue",
            "code": "PSEUDED",
            "display": "pseudonymized"
          } ]
        },
        "system": "https://bzkf.github.io/obds-to-fhir/identifiers/patient-id",
        "value": "10"
      } ],
      "gender": "female",
      "birthDate": "1950-05-01",
      "deceasedDateTime": "2022-08-01",
      "address": [ {
        "type": "both",
        "postalCode": "12345",
        "country": "DE"
      } ]
    },
    "request": {
      "method": "PUT",
      "url": "Patient/a02e16474896f1d528cac71f2c9b4c45ac3c9028e3a53fb414a1f7882991ee07"
    }
  }, {
    "fullUrl": "Condition/9896edd80f6833ea17fbb2c5ad5ca42caa1d02f41baea875f4a390be3b372356",
    "resource": {
      "resourceType": "Condition",
      "id": "9896edd80f6833ea17fbb2c5ad5ca42caa1d02f41baea875f4a390be3b372356",
      "meta": {
        "profile": [ "https://www.medizininformatik-initiative.de/fhir/ext/modul-onko/StructureDefinition/mii-pr-onko-diagnose-primaertumor" ]
      },
      "extension": [ {
        "url": "https://www.medizininformatik-initiative.de/fhir/ext/modul-onko/StructureDefinition/mii-ex-onko-histology-morphology-behavior-icdo3",
        "valueCodeableConcept": {
          "coding": [ {
            "system": "http://terminology.hl7.org/CodeSystem/icd-o-3",
            "version": "33",
            "code": "8010/3"
          } ]
        }
      }, {
        "url": "http://hl7.org/fhir/StructureDefinition/condition-assertedDate",
        "valueDateTime": "2020-03-01"
      } ],
      "identifier": [ {
        "system": "https://bzkf.github.io/obds-to-fhir/identifiers/primaerdiagnose-id",
        "value": "101"
      } ],
      "verificationStatus": {
        "coding": [ {
          "system": "http://terminology.hl7.org/CodeSystem/condition-ver-status",
          "code": "confirmed"
        }, {
          "system": "https://www.medizininformatik-initiative.de/fhir/ext/modul-onko/CodeSystem/mii-cs-onko-primaertumor-diagnosesicherung",
          "code": "7"
        } ]
      },
      "code": {
        "coding": [ {
          "system": "http://fhir.de/CodeSystem/bfarm/icd-10-gm",
          "version": "2020",
          "code": "C50.9"
        } ]
      },
      "bodySite": [ {
        "coding": [ {
          "system": "http://terminology.hl7.org/CodeSystem/icd-o-3",
          "version": "33",
          "code": "C50.9"
        } ]
      }, {
        "coding": [ {
          "system": "https://www.medizininformatik-initiative.de/fhir/ext/modul-onko/CodeSystem/mii-cs-onko-seitenlokalisation",
          "code": "R"
        } ]
      } ],
      "subject": {
        "reference": "Patient/a02e16474896f1d528cac71f2c9b4c45ac3c9028e3a53fb414a1f7882991ee07"
      },
      "recordedDate": "2024-09-19"
    },
    "request": {
      "method": "PUT",
      "url": "Condition/9896edd80f6833ea17fbb2c5ad5ca42caa1d02f41baea875f4a390be3b372356"
    }
  }, {
    "fullUrl": "Observation/6ff37297dfe99bf538549b388e8a9dad85756899519ef6e8e1775da5273bac8d",
    "resource": {
      "resourceType": "Observation",
      "id": "6ff37297dfe99bf538549b388e8a9dad85756899519ef6e8e1775da5273bac8d",
      "meta": {
        "profile": [ "https://www.medizininformatik-initiative.de/fhir/ext/modul-onko/StructureDefinition/mii-pr-onko-allgemeiner-leistungszustand-ecog" ]
      },
      "identifier": [ {
        "system": "https://bzkf.github.io/obds-to-fhir/identifiers/allgemeiner-leistungszustand-ecog-id",
        "value": "ECOG-10_1_DI_1"
      } ],
      "status": "final",
      "code": {
        "coding": [ {
          "system": "http://snomed.info/sct",
          "code": "423740007"
        } ]
      },
      "subject": {
        "reference": "Patient/a02e16474896f1d528cac71f2c9b4c45ac3c9028e3a53fb414a1f7882991ee07"
      },
      "focus": [ {
        "reference": "Condition/9896edd80f6833ea17fbb2c5ad5ca42caa1d02f41baea875f4a390be3b372356"
      } ],
      "effectiveDateTime": "2020-03-01",
      "valueCodeableConcept": {
        "coding": [ {
          "system": "https://www.medizininformatik-initiative.de/fhir/ext/modul-onko/CodeSystem/mii-cs-onko-allgemeiner-leistungszustand-ecog",
          "code": "1",
          "display": "Einschränkung bei körperlicher Anstrengung, aber gehfähig; leichte körperliche Arbeit bzw. Arbeit im Sitzen (z. B. leichte Hausarbeit oder Büroarbeit) möglich (70 - 80 % nach Karnofsky)"
        } ]
      }
    },
    "request": {
      "method": "PUT",
      "url": "Observation/6ff37297dfe99bf538549b388e8a9dad85756899519ef6e8e1775da5273bac8d"
    }
  }, {
    "fullUrl": "Observation/ce9ac4ea209e8287513499093af316c9a589459a575f7fa6c4499530ceaed1da",
    "resource": {
      "resourceType": "Observation",
      "id": "ce9ac4ea209e8287513499093af316c9a589459a575f7fa6c4499530ceaed1da",
      "meta": {
        "profile": [ "https://www.medizininformatik-initiative.de/fhir/ext/modul-onko/StructureDefinition/mii-pr-onko-fernmetastasen" ]
      },
      "identifier": [ {
        "system": "https://bzkf.github.io/obds-to-fhir/identifiers/fernmetastasen-id",
        "value": "10_1_DI_1-Diagnose-0"
      } ],
      "status": "final",
      "code": {
        "coding": [ {
          "system": "http://snomed.info/sct",
          "code": "385421009"
        } ]
      },
      "subject": {
        "reference": "Patient/a02e16474896f1d528cac71f2c9b4c45ac3c9028e3a53fb414a1f7882991ee07"
      },
      "focus": [ {
        "reference": "Condition/9896edd80f6833ea17fbb2c5ad5ca42caa1d02f41baea875f4a390be3b372356"
      } ],
      "effectiveDateTime": "2020-03-01",
      "valueCodeableConcept": {
        "coding": [ {
          "system": "https://www.medizininformatik-initiative.de/fhir/ext/modul-onko/CodeSystem/mii-cs-onko-fernmetastasen",
          "code": "OSS"
        } ]
      }
    },
    "request": {
      "method": "PUT",
      "url": "Observation/ce9ac4ea209e8287513499093af316c9a589459a575f7fa6c4499530ceaed1da"
    }
  }, {
    "fullUrl": "Specimen/fd0a202eb1bf417fe7e7e5b64f4ce312dad44cfd402d919c8d8861031e54b2b9",
    "resource": {
      "resourceType": "Specimen",
      "id": "fd0a202eb1bf417fe7e7e5b64f4ce312dad44cfd402d919c8d8861031e54b2b9",
      "meta": {
        "profile": [ "https://www.medizininformatik-initiative.de/fhir/ext/modul-onko/StructureDefinition/mii-pr-onko-specimen" ]
      },
      "identifier": [ {
        "system": "https://bzkf.github.io/obds-to-fhir/identifiers/specimen-id",
        "value": "521"
      } ],
      "accessionIdentifier": {
        "value": "X/123456/1"
      },
      "subject": {
        "reference": "Patient/a02e16474896f1d528cac71f2c9b4c45ac3c9028e3a53fb414a1f7882991ee07"
      },
      "collection": {
        "collectedDateTime": "2020-03-05"
      }
    },
    "request": {
      "method": "PUT",
      "url": "Specimen/fd0a202eb1bf417fe7e7e5b64f4ce312dad44cfd402d919c8d8861031e54b2b9"
    }
  }, {
    "fullUrl": "Observation/bd42baff334aebe29568e96cdc5a2372bef4677aa465bf1262e7100594019dbb",
    "resource": {
      "resourceType": "Observation",
      "id": "bd42baff334aebe29568e96cdc5a2372bef4677aa465bf1262e7100594019dbb",
      "meta": {
        "profile": [ "https://www.medizininformatik-initiative.de/fhir/ext/modul-onko/StructureDefinition/mii-pr-onko-histologie-icdo3" ]
      },
      "identifier": [ {
        "system": "https://bzkf.github.io/obds-to-fhir/identifiers/observation-histologie-id",
        "value": "521_ICDO3_8010/3"
      } ],
      "status": "final",
      "code": {
        "coding": [ {
          "system": "http://loinc.org",
          "code": "59847-4"
        } ]
      },
      "subject": {
        "reference": "Patient/a02e16474896f1d528cac71f2c9b4c45ac3c9028e3a53fb414a1f7882991ee07"
      },
      "focus": [ {
        "reference": "Condition/9896edd80f6833ea17fbb2c5ad5ca42caa1d02f41baea875f4a390be3b372356"
      } ],
      "effectiveDateTime": "2020-03-05",
      "valueCodeableConcept": {
        "coding": [ {
          "system": "http://terminology.hl7.org/CodeSystem/icd-o-3",
          "version": "33",
          "code": "8010/3"
        } ],
        "text": "Karzinom o.n.A."
      },
      "specimen": {
        "reference": "Specimen/fd0a202eb1bf417fe7e7e5b64f4ce312dad44cfd402d919c8d8861031e54b2b9"
      }
    },
    "request": {
      "method": "PUT",
      "url": "Observation/bd42baff334aebe29568e96cdc5a2372bef4677aa465bf1262e7100594019dbb"
    }
  }, {
    "fullUrl": "Observation/318d327c522ffbb3bd935c40ae3c25228e07f97dcc0f7788d5c69384abf62aee",
    "resource": {
      "resourceType": "Observation",
      "id": "318d327c522ffbb3bd935c40ae3c25228e07f97dcc0f7788d5c69384abf62aee",
      "meta": {
        "profile": [ "https://www.medizininformatik-initiative.de/fhir/ext/modul-onko/StructureDefinition/mii-pr-onko-grading" ]
      },
      "identifier": [ {
        "system": "https://bzkf.github.io/obds-to-fhir/identifiers/grading-observation-id",
        "value": "521_Grading"
      } ],
      "status": "final",
      "category": [ {
        "coding": [ {
          "system": "http://terminology.hl7.org/CodeSystem/observation-category",
          "code": "laboratory"
        } ]
      } ],
      "code": {
        "coding": [ {
          "system": "http://loinc.org",
          "code": "33732-9"
        }, {
          "system": "http://snomed.info/sct",
          "code": "371469007"
        } ]
      },
      "subject": {
        "reference": "Patient/a02e16474896f1d528cac71f2c9b4c45ac3c9028e3a53fb414a1f7882991ee07"
      },
      "focus": [ {
        "reference": "Condition/9896edd80f6833ea17fbb2c5ad5ca42caa1d02f41baea875f4a390be3b372356"
      } ],
      "effectiveDateTime": "2020-03-05",
      "valueCodeableConcept": {
        "coding": [ {
          "system": "https://www.medizininformatik-initiative.de/fhir/ext/modul-onko/CodeSystem/mii-cs-onko-grading",
          "code": "2"
        } ]
      },
      "specimen": {
        "reference": "Specimen/fd0a202eb1bf417fe7e7e5b64f4ce312dad44cfd402d919c8d8861031e54b2b9"
      }
    },
    "request": {
      "method": "PUT",
      "url": "Observation/318d327c522ffbb3bd935c40ae3c25228e07f97dcc0f7788d5c69384abf62aee"
    }
  }, {
    "fullUrl": "Observation/db60ab4fce9b47c042d17c13ef46cce8a02d241dd178f5bb8ea74c76d825f7c8",
    "resource": {
      "resourceType": "Observation",
      "id": "db60ab4fce9b47c042d17c13ef46cce8a02d241dd178f5bb8ea74c76d825f7c8",
      "meta": {
        "profile": [ "https://www.medizininformatik-initiative.de/fhir/ext/modul-onko/StructureDefinition/mii-pr-onko-anzahl-befallene-lymphknoten" ]
      },
      "identifier": [ {
        "system": "https://bzkf.github.io/obds-to-fhir/identifiers/observation-histologie-id",
        "value": "521_befallen"
      } ],
      "status": "final",
      "category": [ {
        "coding": [ {
          "system": "http://terminology.hl7.org/CodeSystem/observation-category",
          "code": "laboratory"
        } ]
      } ],
      "code": {
        "coding": [ {
          "system": "http://loinc.org",
          "code": "21893-3"
        }, {
          "system": "http://snomed.info/sct",
          "code": "443527007"
        } ]
      },
      "subject": {
        "reference": "Patient/a02e16474896f1d528cac71f2c9b4c45ac3c9028e3a53fb414a1f7882991ee07"
      },
      "focus": [ {
        "reference": "Condition/9896edd80f6833ea17fbb2c5ad5ca42caa1d02f41baea875f4a390be3b372356"
      } ],
      "effectiveDateTime": "2020-03-05",
      "valueQuantity": {
        "value": 2,
        "unit": "#",
        "system": "http://unitsofmeasure.org",
        "code": "1"
      },
      "specimen": {
        "reference": "Specimen/fd0a202eb1bf417fe7e7e5b64f4ce312dad44cfd402d919c8d8861031e54b2b9"
      }
    },
    "request": {
      "method": "PUT",
      "url": "Observation/db60ab4fce9b47c042d17c13ef46cce8a02d241dd178f5bb8ea74c76d825f7c8"
    }
  }, {
    "fullUrl": "Observation/befdd6af2d29056dcf38e4c734a866f78c1edbb16c861cdc11e1cd2b4922496d",
    "resource": {
      "resourceType": "Observation",
      "id": "befdd6af2d29056dcf38e4c734a866f78c1edbb16c861cdc11e1cd2b4922496d",
      "meta": {
        "profile": [ "https://www.medizininformatik-initiative.de/fhir/ext/modul-onko/StructureDefinition/mii-pr-onko-anzahl-untersuchte-lymphknoten" ]
      },
      "identifier": [ {
        "system": "https://bzkf.github.io/obds-to-fhir/identifiers/observation-histologie-id",
        "value": "521_untersucht"
      } ],
      "status": "final",
      "category": [ {
        "coding": [ {
          "system": "http://terminology.hl7.org/CodeSystem/observation-category",
          "code": "laboratory"
        } ]
      } ],
      "code": {
        "coding": [ {
          "system": "http://loinc.org",
          "code": "21894-1"
        }, {
          "system": "http://snomed.info/sct",
          "code": "444025001"
        } ]
      },
      "subject": {
        "reference": "Patient/a02e16474896f1d528cac71f2c9b4c45ac3c9028e3a53fb414a1f7882991ee07"
      },
      "focus": [ {
        "reference": "Condition/9896edd80f6833ea17fbb2c5ad5ca42caa1d02f41baea875f4a390be3b372356"
      } ],
      "effectiveDateTime": "2020-03-05",
      "valueQuantity": {
        "value": 10,
        "unit": "#",
        "system": "http://unitsofmeasure.org",
        "code": "1"
      },
      "specimen": {
        "reference": "Specimen/fd0a202eb1bf417fe7e7e5b64f4ce312dad44cfd402d919c8d8861031e54b2b9"
      }
    },
    "request": {
      "method": "PUT",
      "url": "Observation/befdd6af2d29056dcf38e4c734a866f78c1edbb16c861cdc11e1cd2b4922496d"
    }
  }, {
    "fullUrl": "Observation/ad9694a6347a1c7dbd25b0e66ebb11a4ea797763fe8642e24b0817a292d201ae",
    "resource": {
      "resourceType": "Observation",
      "id": "ad9694a6347a1c7dbd25b0e66ebb11a4ea797763fe8642e24b0817a292d201ae",
      "meta": {
        "profile": [ "https://www.medizininformatik-initiative.de/fhir/ext/modul-onko/StructureDefinition/mii-pr-onko-anzahl-befallene-sentinel-lymphknoten" ]
      },
      "identifier": [ {
        "system": "https://bzkf.github.io/obds-to-fhir/identifiers/observation-histologie-id",
        "value": "521_befallen_sentinel"
      } ],
      "status": "final",
      "category": [ {
        "coding": [ {
          "system": "http://terminology.hl7.org/CodeSystem/observation-category",
          "code": "laboratory"
        } ]
      } ],
      "code": {
        "coding": [ {
          "system": "http://loinc.org",
          "code": "92832-5"
        }, {
          "system": "http://snomed.info/sct",
          "code": "1264491009"
        } ]
      },
      "subject": {
        "reference": "Patient/a02e16474896f1d528cac71f2c9b4c45ac3c9028e3a53fb414a1f7882991ee07"
      },
      "focus": [ {
        "reference": "Condition/9896edd80f6833ea17fbb2c5ad5ca42caa1d02f41baea875f4a390be3b372356"
      } ],
      "effectiveDateTime": "2020-03-05",
      "valueQuantity": {
        "value": 1,
        "unit": "#",
        "system": "http://unitsofmeasure.org",
        "code": "1"
      },
      "specimen": {
        "reference": "Specimen/fd0a202eb1bf417fe7e7e5b64f4ce312dad44cfd402d919c8d8861031e54b2b9"
      }
    },
    "request": {
      "method": "PUT",
      "url": "Observation/ad9694a6347a1c7dbd25b0e66ebb11a4ea797763fe8642e24b0817a292d201ae"
    }
  }, {
    "fullUrl": "Observation/fbe91a7f12faf6160fd93ad153640df603598f4d10e798e9620415a7ed84785e",
    "resource": {
      "resourceType": "Observation",
      "id": "fbe91a7f12faf6160fd93ad153640df603598f4d10e798e9620415a7ed84785e",
      "meta": {
        "profile": [ "https://www.medizininformatik-initiative.de/fhir/ext/modul-onko/StructureDefinition/mii-pr-onko-anzahl-untersuchte-sentinel-lymphknoten" ]
      },
      "identifier": [ {
        "system": "https://bzkf.github.io/obds-to-fhir/identifiers/observation-histologie-id",
        "value": "521_untersucht_sentinel"
      } ],
      "status": "final",
      "category": [ {
        "coding": [ {
          "system": "http://terminology.hl7.org/CodeSystem/observation-category",
          "code": "laboratory"
        } ]
      } ],
      "code": {
        "coding": [ {
          "system": "http://loinc.org",
          "code": "85347-3"
        }, {
          "system": "http://snomed.info/sct",
          "code": "444411008"
        } ]
      },
      "subject": {
        "reference": "Patient/a02e16474896f1d528cac71f2c9b4c45ac3c9028e3a53fb414a1f7882991ee07"
      },
      "focus": [ {
        "reference": "Condition/9896edd80f6833ea17fbb2c5ad5ca42caa1d02f41baea875f4a390be3b372356"
      } ],
      "effectiveDateTime": "2020-03-05",
      "valueQuantity": {
        "value": 2,
        "unit": "#",
        "system": "http://unitsofmeasure.org",
        "code": "1"
      },
      "specimen": {
        "reference": "Specimen/fd0a202eb1bf417fe7e7e5b64f4ce312dad44cfd402d919c8d8861031e54b2b9"
      }
    },
    "request": {
      "method": "PUT",
      "url": "Observation/fbe91a7f12faf6160fd93ad153640df603598f4d10e798e9620415a7ed84785e"
    }
  }, {
    "fullUrl": "Observation/6c42d23f35790d565246f1ea101918e6a5eae3dba3fd37ade3bf101728299d87",
    "resource": {
      "resourceType": "Observation",
      "id": "6c42d23f35790d565246f1ea101918e6a5eae3dba3fd37ade3bf101728299d87",
      "meta": {
        "profile": [ "https://www.medizininformatik-initiative.de/fhir/ext/modul-onko/StructureDefinition/mii-pr-onko-studienteilnahme" ]
      },
      "identifier": [ {
        "system": "https://bzkf.github.io/obds-to-fhir/identifiers/studienteilnahme-id",
        "value": "10_1_DI_1_Studienteilnahme"
      } ],
      "status": "final",
      "code": {
        "coding": [ {
          "system": "http://snomed.info/sct",
          "code": "709491003",
          "display": "Enrollment in clinical trial (procedure)"
        } ]
      },
      "subject": {
        "reference": "Patient/a02e16474896f1d528cac71f2c9b4c45ac3c9028e3a53fb414a1f7882991ee07"
      },
      "focus": [ {
        "reference": "Condition/9896edd80f6833ea17fbb2c5ad5ca42caa1d02f41baea875f4a390be3b372356"
      } ],
      "effectiveDateTime": "2020-03-17",
      "valueCodeableConcept": {
        "coding": [ {
          "system": "https://www.medizininformatik-initiative.de/fhir/ext/modul-onko/CodeSystem/mii-cs-onko-studienteilnahme",
          "code": "J",
          "display": "Ja"
        } ]
      }
    },
    "request": {
      "method": "PUT",
      "url": "Observation/6c42d23f35790d565246f1ea101918e6a5eae3dba3fd37ade3bf101728299d87"
    }
  }, {
    "fullUrl": "Observation/e5db603a12f215c3610bd5e24d86e6bf57600de58f044ebf9e18b29b6c35b69e",
    "resource": {
      "resourceType": "Observation",
      "id": "e5db603a12f215c3610bd5e24d86e6bf57600de58f044ebf9e18b29b6c35b69e",
      "meta": {
        "profile": [ "https://www.medizininformatik-initiative.de/fhir/ext/modul-onko/StructureDefinition/mii-pr-onko-genetische-variante" ]
      },
      "identifier": [ {
        "system": "https://bzkf.github.io/obds-to-fhir/identifiers/genetische-variante-id",
        "value": "GenetischeAusprägung-Diagnose10_1_DI_1M0"
      } ],
      "status": "final",
      "category": [ {
        "coding": [ {
          "system": "http://terminology.hl7.org/CodeSystem/observation-category",
          "code": "laboratory"
        } ]
      } ],
      "code": {
        "coding": [ {
          "system": "http://loinc.org",
          "code": "69548-6"
        } ]
      },
      "subject": {
        "reference": "Patient/a02e16474896f1d528cac71f2c9b4c45ac3c9028e3a53fb414a1f7882991ee07"
      },
      "focus": [ {
        "reference": "Condition/9896edd80f6833ea17fbb2c5ad5ca42caa1d02f41baea875f4a390be3b372356"
      } ],
      "effectiveDateTime": "2020-03-01",
      "interpretation": [ {
        "coding": [ {
          "system": "https://www.medizininformatik-initiative.de/fhir/ext/modul-onko/CodeSystem/mii-cs-onko-genetische-variante-auspraegung",
          "code": "M"
        } ]
      } ],
      "note": [ {
        "text": "BRCA 1"
      } ]
    },
    "request": {
      "method": "PUT",
      "url": "Observation/e5db603a12f215c3610bd5e24d86e6bf57600de58f044ebf9e18b29b6c35b69e"
    }
  }, {
    "fullUrl": "Observation/424786f78b63744c5ad5efd4ef1e677a7cdf5e0de615e942ab931682d54eeb7c",
    "resource": {
      "resourceType": "Observation",
      "id": "424786f78b63744c5ad5efd4ef1e677a7cdf5e0de615e942ab931682d54eeb7c",
      "meta": {
        "profile": [ "https://www.medizininformatik-initiative.de/fhir/ext/modul-onko/StructureDefinition/mii-pr-onko-genetische-variante" ]
      },
      "identifier": [ {
        "system": "https://bzkf.github.io/obds-to-fhir/identifiers/genetische-variante-id",
        "value": "GenetischeAusprägung-Diagnose10_1_DI_11"
      } ],
      "status": "final",
      "category": [ {
        "coding": [ {
          "system": "http://terminology.hl7.org/CodeSystem/observation-category",
          "code": "laboratory"
        } ]
      } ],
      "code": {
        "coding": [ {
          "system": "http://loinc.org",
          "code": "69548-6"
        } ]
      },
      "subject": {
        "reference": "Patient/a02e16474896f1d528cac71f2c9b4c45ac3c9028e3a53fb414a1f7882991ee07"
      },
      "focus": [ {
        "reference": "Condition/9896edd80f6833ea17fbb2c5ad5ca42caa1d02f41baea875f4a390be3b372356"
      } ],
      "effectiveDateTime": "2020-03-01",
      "interpretation": [ {
        "coding": [ {
          "system": "https://www.medizininformatik-initiative.de/fhir/ext/modul-onko/CodeSystem/mii-cs-onko-genetische-variante-auspraegung",
          "code": "S"
        } ],
        "text": "Translation"
      } ],
      "note": [ {
        "text": "BRCA 2"
      } ]
    },
    "request": {
      "method": "PUT",
      "url": "Observation/424786f78b63744c5ad5efd4ef1e677a7cdf5e0de615e942ab931682d54eeb7c"
    }
  }, {
    "fullUrl": "Observation/40ace011f43a456edf37434b613e30d849edb1510e616a67bc8d6c6b216afb90",
    "resource": {
      "resourceType": "Observation",
      "id": "40ace011f43a456edf37434b613e30d849edb1510e616a67bc8d6c6b216afb90",
      "meta": {
        "profile": [ "https://www.medizininformatik-initiative.de/fhir/ext/modul-onko/StructureDefinition/mii-pr-onko-tnm-t-kategorie" ]
      },
      "identifier": [ {
        "system": "481_T",
        "value": "https://bzkf.github.io/obds-to-fhir/identifiers/tnm-t-kategorie-observation-id"
      } ],
      "status": "final",
      "code": {
        "extension": [ {
          "url": "https://www.medizininformatik-initiative.de/fhir/ext/modul-onko/StructureDefinition/mii-ex-onko-tnm-cp-praefix",
          "valueCodeableConcept": {
            "coding": [ {
              "system": "https://www.uicc.org/resources/tnm",
              "code": "c"
            } ]
          }
        } ],
        "coding": [ {
          "system": "http://snomed.info/sct",
          "code": "399504009",
          "display": "cT category (observable entity)"
        } ]
      },
      "subject": {
        "reference": "Patient/a02e16474896f1d528cac71f2c9b4c45ac3c9028e3a53fb414a1f7882991ee07"
      },
      "focus": [ {
        "reference": "Condition/9896edd80f6833ea17fbb2c5ad5ca42caa1d02f41baea875f4a390be3b372356"
      } ],
      "effectiveDateTime": "2020-03-01",
      "valueCodeableConcept": {
        "coding": [ {
          "system": "https://www.uicc.org/resources/tnm",
          "code": "2"
        } ]
      },
      "method": {
        "coding": [ {
          "system": "https://www.medizininformatik-initiative.de/fhir/ext/modul-onko/CodeSystem/mii-cs-onko-tnm-version",
          "code": "8"
        } ]
      }
    },
    "request": {
      "method": "PUT",
      "url": "Observation/40ace011f43a456edf37434b613e30d849edb1510e616a67bc8d6c6b216afb90"
    }
  }, {
    "fullUrl": "Observation/338dac74cde8cdba1bfc4d1bda1f3bc92c1cd67ac4fea568f9a71026db3f84f1",
    "resource": {
      "resourceType": "Observation",
      "id": "338dac74cde8cdba1bfc4d1bda1f3bc92c1cd67ac4fea568f9a71026db3f84f1",
      "meta": {
        "profile": [ "https://www.medizininformatik-initiative.de/fhir/ext/modul-onko/StructureDefinition/mii-pr-onko-tnm-n-kategorie" ]
      },
      "identifier": [ {
        "system": "481_N",
        "value": "https://bzkf.github.io/obds-to-fhir/identifiers/tnm-n-kategorie-observation-id"
      } ],
      "status": "final",
      "code": {
        "extension": [ {
          "url": "https://www.medizininformatik-initiative.de/fhir/ext/modul-onko/StructureDefinition/mii-ex-onko-tnm-cp-praefix",
          "valueCodeableConcept": {
            "coding": [ {
              "system": "https://www.uicc.org/resources/tnm",
              "code": "c"
            } ]
          }
        } ],
        "coding": [ {
          "system": "http://snomed.info/sct",
          "code": "399534004",
          "display": "cN category (observable entity)"
        } ]
      },
      "subject": {
        "reference": "Patient/a02e16474896f1d528cac71f2c9b4c45ac3c9028e3a53fb414a1f7882991ee07"
      },
      "focus": [ {
        "reference": "Condition/9896edd80f6833ea17fbb2c5ad5ca42caa1d02f41baea875f4a390be3b372356"
      } ],
      "effectiveDateTime": "2020-03-01",
      "valueCodeableConcept": {
        "coding": [ {
          "system": "https://www.uicc.org/resources/tnm",
          "code": "1"
        } ]
      },
      "method": {
        "coding": [ {
          "system": "https://www.medizininformatik-initiative.de/fhir/ext/modul-onko/CodeSystem/mii-cs-onko-tnm-version",
          "code": "8"
        } ]
      }
    },
    "request": {
      "method": "PUT",
      "url": "Observation/338dac74cde8cdba1bfc4d1bda1f3bc92c1cd67ac4fea568f9a71026db3f84f1"
    }
  }, {
    "fullUrl": "Observation/0be73bd9a5137d84772e46e2f83b02f5ad5d9a66de1146440bf15e45c65efd68",
    "resource": {
      "resourceType": "Observation",
      "id": "0be73bd9a5137d84772e46e2f83b02f5ad5d9a66de1146440bf15e45c65efd68",
      "meta": {
        "profile": [ "https://www.medizininformatik-initiative.de/fhir/ext/modul-onko/StructureDefinition/mii-pr-onko-tnm-m-kategorie" ]
      },
      "identifier": [ {
        "system": "481_M",
        "value": "https://bzkf.github.io/obds-to-fhir/identifiers/tnm-m-kategorie-observation-id"
      } ],
      "status": "final",
      "code": {
        "extension": [ {
          "url": "https://www.medizininformatik-initiative.de/fhir/ext/modul-onko/StructureDefinition/mii-ex-onko-tnm-cp-praefix",
          "valueCodeableConcept": {
            "coding": [ {
              "system": "https://www.uicc.org/resources/tnm",
              "code": "c"
            } ]
          }
        } ],
        "coding": [ {
          "system": "http://snomed.info/sct",
          "code": "399387003",
          "display": "cM category (observable entity)"
        } ]
      },
      "subject": {
        "reference": "Patient/a02e16474896f1d528cac71f2c9b4c45ac3c9028e3a53fb414a1f7882991ee07"
      },
      "focus": [ {
        "reference": "Condition/9896edd80f6833ea17fbb2c5ad5ca42caa1d02f41baea875f4a390be3b372356"
      } ],
      "effectiveDateTime": "2020-03-01",
      "valueCodeableConcept": {
        "coding": [ {
          "system": "https://www.uicc.org/resources/tnm",
          "code": "1"
        } ]
      },
      "method": {
        "coding": [ {
          "system": "https://www.medizininformatik-initiative.de/fhir/ext/modul-onko/CodeSystem/mii-cs-onko-tnm-version",
          "code": "8"
        } ]
      }
    },
    "request": {
      "method": "PUT",
      "url": "Observation/0be73bd9a5137d84772e46e2f83b02f5ad5d9a66de1146440bf15e45c65efd68"
    }
  }, {
    "fullUrl": "Observation/1aadefe669ae38b49c8825f068ebad1dc27f79e8681a3e2aba0ad6b78afcb1f3",
    "resource": {
      "resourceType": "Observation",
      "id": "1aadefe669ae38b49c8825f068ebad1dc27f79e8681a3e2aba0ad6b78afcb1f3",
      "meta": {
        "profile": [ "https://www.medizininformatik-initiative.de/fhir/ext/modul-onko/StructureDefinition/mii-pr-onko-tnm-m-symbol" ]
      },
      "identifier": [ {
        "system": "481_m",
        "value": "https://bzkf.github.io/obds-to-fhir/identifiers/tnm-m-symbol-observation-id"
      } ],
      "status": "final",
      "code": {
        "coding": [ {
          "system": "http://loinc.org",
          "code": "42030-7"
        } ]
      },
      "subject": {
        "reference": "Patient/a02e16474896f1d528cac71f2c9b4c45ac3c9028e3a53fb414a1f7882991ee07"
      },
      "focus": [ {
        "reference": "Condition/9896edd80f6833ea17fbb2c5ad5ca42caa1d02f41baea875f4a390be3b372356"
      } ],
      "effectiveDateTime": "2020-03-01",
      "valueCodeableConcept": {
        "coding": [ {
          "system": "https://www.uicc.org/resources/tnm",
          "code": "m"
        } ]
      },
      "method": {
        "coding": [ {
          "system": "https://www.medizininformatik-initiative.de/fhir/ext/modul-onko/CodeSystem/mii-cs-onko-tnm-version",
          "code": "8"
        } ]
      }
    },
    "request": {
      "method": "PUT",
      "url": "Observation/1aadefe669ae38b49c8825f068ebad1dc27f79e8681a3e2aba0ad6b78afcb1f3"
    }
  }, {
    "fullUrl": "Observation/0d0c9afe46200509591a4d2dcdf81884a32a4a9a458ee862581e4232a87daf72",
    "resource": {
      "resourceType": "Observation",
      "id": "0d0c9afe46200509591a4d2dcdf81884a32a4a9a458ee862581e4232a87daf72",
      "meta": {
        "profile": [ "https://www.medizininformatik-initiative.de/fhir/ext/modul-onko/StructureDefinition/mii-pr-onko-tnm-klassifikation" ]
      },
      "identifier": [ {
        "system": "https://bzkf.github.io/obds-to-fhir/identifiers/tnm-grouping-observation-id",
        "value": "481"
      } ],
      "status": "final",
      "code": {
        "coding": [ {
          "system": "http://snomed.info/sct",
          "code": "399537006",
          "display": "Clinical TNM stage grouping"
        } ]
      },
      "subject": {
        "reference": "Patient/a02e16474896f1d528cac71f2c9b4c45ac3c9028e3a53fb414a1f7882991ee07"
      },
      "focus": [ {
        "reference": "Condition/9896edd80f6833ea17fbb2c5ad5ca42caa1d02f41baea875f4a390be3b372356"
      } ],
      "effectiveDateTime": "2020-03-01",
      "valueCodeableConcept": {
        "coding": [ {
          "system": "https://www.uicc.org/resources/tnm",
          "code": "IV",
          "display": "Stadium IV"
        } ]
      },
      "method": {
        "coding": [ {
          "system": "https://www.medizininformatik-initiative.de/fhir/ext/modul-onko/CodeSystem/mii-cs-onko-tnm-version",
          "code": "8"
        } ]
      },
      "hasMember": [ {
        "reference": "Observation/40ace011f43a456edf37434b613e30d849edb1510e616a67bc8d6c6b216afb90"
      }, {
        "reference": "Observation/338dac74cde8cdba1bfc4d1bda1f3bc92c1cd67ac4fea568f9a71026db3f84f1"
      }, {
        "reference": "Observation/0be73bd9a5137d84772e46e2f83b02f5ad5d9a66de1146440bf15e45c65efd68"
      }, {
        "reference": "Observation/1aadefe669ae38b49c8825f068ebad1dc27f79e8681a3e2aba0ad6b78afcb1f3"
      } ]
    },
    "request": {
      "method": "PUT",
      "url": "Observation/0d0c9afe46200509591a4d2dcdf81884a32a4a9a458ee862581e4232a87daf72"
    }
  }, {
    "fullUrl": "Observation/aa3c5bb85d49e9ef61d09d3bd69ac6dbaccd202ce0d9c582ddf68367172ec89f",
    "resource": {
      "resourceType": "Observation",
      "id": "aa3c5bb85d49e9ef61d09d3bd69ac6dbaccd202ce0d9c582ddf68367172ec89f",
      "meta": {
        "profile": [ "https://www.medizininformatik-initiative.de/fhir/ext/modul-onko/StructureDefinition/mii-pr-onko-tnm-t-kategorie" ]
      },
      "identifier": [ {
        "system": "482_T",
        "value": "https://bzkf.github.io/obds-to-fhir/identifiers/tnm-t-kategorie-observation-id"
      } ],
      "status": "final",
      "code": {
        "extension": [ {
          "url": "https://www.medizininformatik-initiative.de/fhir/ext/modul-onko/StructureDefinition/mii-ex-onko-tnm-cp-praefix",
          "valueCodeableConcept": {
            "coding": [ {
              "system": "https://www.uicc.org/resources/tnm",
              "code": "p"
            } ]
          }
        } ],
        "coding": [ {
          "system": "http://snomed.info/sct",
          "code": "384625004",
          "display": "pT category (observable entity)"
        } ]
      },
      "subject": {
        "reference": "Patient/a02e16474896f1d528cac71f2c9b4c45ac3c9028e3a53fb414a1f7882991ee07"
      },
      "focus": [ {
        "reference": "Condition/9896edd80f6833ea17fbb2c5ad5ca42caa1d02f41baea875f4a390be3b372356"
      } ],
      "effectiveDateTime": "2020-03-05",
      "valueCodeableConcept": {
        "coding": [ {
          "system": "https://www.uicc.org/resources/tnm",
          "code": "2"
        } ]
      },
      "method": {
        "coding": [ {
          "system": "https://www.medizininformatik-initiative.de/fhir/ext/modul-onko/CodeSystem/mii-cs-onko-tnm-version",
          "code": "8"
        } ]
      }
    },
    "request": {
      "method": "PUT",
      "url": "Observation/aa3c5bb85d49e9ef61d09d3bd69ac6dbaccd202ce0d9c582ddf68367172ec89f"
    }
  }, {
    "fullUrl": "Observation/b62f438eee9a5349e92801825ce3acd90658ea9ac28ab76e40fa4afaf1b6ae71",
    "resource": {
      "resourceType": "Observation",
      "id": "b62f438eee9a5349e92801825ce3acd90658ea9ac28ab76e40fa4afaf1b6ae71",
      "meta": {
        "profile": [ "https://www.medizininformatik-initiative.de/fhir/ext/modul-onko/StructureDefinition/mii-pr-onko-tnm-n-kategorie" ]
      },
      "identifier": [ {
        "system": "482_N",
        "value": "https://bzkf.github.io/obds-to-fhir/identifiers/tnm-n-kategorie-observation-id"
      } ],
      "status": "final",
      "code": {
        "extension": [ {
          "url": "https://www.medizininformatik-initiative.de/fhir/ext/modul-onko/StructureDefinition/mii-ex-onko-tnm-cp-praefix",
          "valueCodeableConcept": {
            "coding": [ {
              "system": "https://www.uicc.org/resources/tnm",
              "code": "p"
            } ]
          }
        } ],
        "coding": [ {
          "system": "http://snomed.info/sct",
          "code": "371494008",
          "display": "pN category (observable entity)"
        } ]
      },
      "subject": {
        "reference": "Patient/a02e16474896f1d528cac71f2c9b4c45ac3c9028e3a53fb414a1f7882991ee07"
      },
      "focus": [ {
        "reference": "Condition/9896edd80f6833ea17fbb2c5ad5ca42caa1d02f41baea875f4a390be3b372356"
      } ],
      "effectiveDateTime": "2020-03-05",
      "valueCodeableConcept": {
        "coding": [ {
          "system": "https://www.uicc.org/resources/tnm",
          "code": "1"
        } ]
      },
      "method": {
        "coding": [ {
          "system": "https://www.medizininformatik-initiative.de/fhir/ext/modul-onko/CodeSystem/mii-cs-onko-tnm-version",
          "code": "8"
        } ]
      }
    },
    "request": {
      "method": "PUT",
      "url": "Observation/b62f438eee9a5349e92801825ce3acd90658ea9ac28ab76e40fa4afaf1b6ae71"
    }
  }, {
    "fullUrl": "Observation/660cb62aa766833529222617ba146e1287af7bbc68d51d3216441d518d02b256",
    "resource": {
      "resourceType": "Observation",
      "id": "660cb62aa766833529222617ba146e1287af7bbc68d51d3216441d518d02b256",
      "meta": {
        "profile": [ "https://www.medizininformatik-initiative.de/fhir/ext/modul-onko/StructureDefinition/mii-pr-onko-tnm-m-kategorie" ]
      },
      "identifier": [ {
        "system": "482_M",
        "value": "https://bzkf.github.io/obds-to-fhir/identifiers/tnm-m-kategorie-observation-id"
      } ],
      "status": "final",
      "code": {
        "extension": [ {
          "url": "https://www.medizininformatik-initiative.de/fhir/ext/modul-onko/StructureDefinition/mii-ex-onko-tnm-cp-praefix",
          "valueCodeableConcept": {
            "coding": [ {
              "system": "https://www.uicc.org/resources/tnm",
              "code": "p"
            } ]
          }
        } ],
        "coding": [ {
          "system": "http://snomed.info/sct",
          "code": "371497001",
          "display": "pM category (observable entity)"
        } ]
      },
      "subject": {
        "reference": "Patient/a02e16474896f1d528cac71f2c9b4c45ac3c9028e3a53fb414a1f7882991ee07"
      },
      "focus": [ {
        "reference": "Condition/9896edd80f6833ea17fbb2c5ad5ca42caa1d02f41baea875f4a390be3b372356"
      } ],
      "effectiveDateTime": "2020-03-05",
      "valueCodeableConcept": {
        "coding": [ {
          "system": "https://www.uicc.org/resources/tnm",
          "code": "1"
        } ]
      },
      "method": {
        "coding": [ {
          "system": "https://www.medizininformatik-initiative.de/fhir/ext/modul-onko/CodeSystem/mii-cs-onko-tnm-version",
          "code": "8"
        } ]
      }
    },
    "request": {
      "method": "PUT",
      "url": "Observation/660cb62aa766833529222617ba146e1287af7bbc68d51d3216441d518d02b256"
    }
  }, {
    "fullUrl": "Observation/a989355244d956a0d3562e40ab119befa2acdaf36be7fead971c3efdad03dd84",
    "resource": {
      "resourceType": "Observation",
      "id": "a989355244d956a0d3562e40ab119befa2acdaf36be7fead971c3efdad03dd84",
      "meta": {
        "profile": [ "https://www.medizininformatik-initiative.de/fhir/ext/modul-onko/StructureDefinition/mii-pr-onko-tnm-m-symbol" ]
      },
      "identifier": [ {
        "system": "482_m",
        "value": "https://bzkf.github.io/obds-to-fhir/identifiers/tnm-m-symbol-observation-id"
      } ],
      "status": "final",
      "code": {
        "coding": [ {
          "system": "http://loinc.org",
          "code": "42030-7"
        } ]
      },
      "subject": {
        "reference": "Patient/a02e16474896f1d528cac71f2c9b4c45ac3c9028e3a53fb414a1f7882991ee07"
      },
      "focus": [ {
        "reference": "Condition/9896edd80f6833ea17fbb2c5ad5ca42caa1d02f41baea875f4a390be3b372356"
      } ],
      "effectiveDateTime": "2020-03-05",
      "valueCodeableConcept": {
        "coding": [ {
          "system": "https://www.uicc.org/resources/tnm",
          "code": "3"
        } ]
      },
      "method": {
        "coding": [ {
          "system": "https://www.medizininformatik-initiative.de/fhir/ext/modul-onko/CodeSystem/mii-cs-onko-tnm-version",
          "code": "8"
        } ]
      }
    },
    "request": {
      "method": "PUT",
      "url": "Observation/a989355244d956a0d3562e40ab119befa2acdaf36be7fead971c3efdad03dd84"
    }
  }, {
    "fullUrl": "Observation/d8304bad7f664c22c37c3109749c50fab38979a9fb353bad9d536c6764a126bf",
    "resource": {
      "resourceType": "Observation",
      "id": "d8304bad7f664c22c37c3109749c50fab38979a9fb353bad9d536c6764a126bf",
      "meta": {
        "profile": [ "https://www.medizininformatik-initiative.de/fhir/ext/modul-onko/StructureDefinition/mii-pr-onko-tnm-l-kategorie" ]
      },
      "identifier": [ {
        "system": "482_L",
        "value": "https://bzkf.github.io/obds-to-fhir/identifiers/tnm-l-kategorie-observation-id"
      } ],
      "status": "final",
      "code": {
        "coding": [ {
          "system": "http://snomed.info/sct",
          "code": "395715009"
        } ]
      },
      "subject": {
        "reference": "Patient/a02e16474896f1d528cac71f2c9b4c45ac3c9028e3a53fb414a1f7882991ee07"
      },
      "focus": [ {
        "reference": "Condition/9896edd80f6833ea17fbb2c5ad5ca42caa1d02f41baea875f4a390be3b372356"
      } ],
      "effectiveDateTime": "2020-03-05",
      "valueCodeableConcept": {
        "coding": [ {
          "system": "https://www.uicc.org/resources/tnm",
          "code": "LX"
        } ]
      },
      "method": {
        "coding": [ {
          "system": "https://www.medizininformatik-initiative.de/fhir/ext/modul-onko/CodeSystem/mii-cs-onko-tnm-version",
          "code": "8"
        } ]
      }
    },
    "request": {
      "method": "PUT",
      "url": "Observation/d8304bad7f664c22c37c3109749c50fab38979a9fb353bad9d536c6764a126bf"
    }
  }, {
    "fullUrl": "Observation/959f29df3df9f19b54a38319069d1591b30750b2a0ba7f86b0989596256ddcf4",
    "resource": {
      "resourceType": "Observation",
      "id": "959f29df3df9f19b54a38319069d1591b30750b2a0ba7f86b0989596256ddcf4",
      "meta": {
        "profile": [ "\thttps://www.medizininformatik-initiative.de/fhir/ext/modul-onko/StructureDefinition/mii-pr-onko-tnm-pn-kategorie" ]
      },
      "identifier": [ {
        "system": "482_Pn",
        "value": "https://bzkf.github.io/obds-to-fhir/identifiers/tnm-pn-kategorie-observation-id"
      } ],
      "status": "final",
      "code": {
        "coding": [ {
          "system": "http://snomed.info/sct",
          "code": "371513001"
        } ]
      },
      "subject": {
        "reference": "Patient/a02e16474896f1d528cac71f2c9b4c45ac3c9028e3a53fb414a1f7882991ee07"
      },
      "focus": [ {
        "reference": "Condition/9896edd80f6833ea17fbb2c5ad5ca42caa1d02f41baea875f4a390be3b372356"
      } ],
      "effectiveDateTime": "2020-03-05",
      "valueCodeableConcept": {
        "coding": [ {
          "system": "https://www.uicc.org/resources/tnm",
          "code": "PnX"
        } ]
      },
      "method": {
        "coding": [ {
          "system": "https://www.medizininformatik-initiative.de/fhir/ext/modul-onko/CodeSystem/mii-cs-onko-tnm-version",
          "code": "8"
        } ]
      }
    },
    "request": {
      "method": "PUT",
      "url": "Observation/959f29df3df9f19b54a38319069d1591b30750b2a0ba7f86b0989596256ddcf4"
    }
  }, {
    "fullUrl": "Observation/888742c41a2f9259da8bd4187ae8a9e917c4f323d7ab2bfc7e2577ce499c28f0",
    "resource": {
      "resourceType": "Observation",
      "id": "888742c41a2f9259da8bd4187ae8a9e917c4f323d7ab2bfc7e2577ce499c28f0",
      "meta": {
        "profile": [ "https://www.medizininformatik-initiative.de/fhir/ext/modul-onko/StructureDefinition/mii-pr-onko-tnm-v-kategorie" ]
      },
      "identifier": [ {
        "system": "482_V",
        "value": "https://bzkf.github.io/obds-to-fhir/identifiers/tnm-v-kategorie-observation-id"
      } ],
      "status": "final",
      "code": {
        "coding": [ {
          "system": "http://snomed.info/sct",
          "code": "371493002"
        } ]
      },
      "subject": {
        "reference": "Patient/a02e16474896f1d528cac71f2c9b4c45ac3c9028e3a53fb414a1f7882991ee07"
      },
      "focus": [ {
        "reference": "Condition/9896edd80f6833ea17fbb2c5ad5ca42caa1d02f41baea875f4a390be3b372356"
      } ],
      "effectiveDateTime": "2020-03-05",
      "valueCodeableConcept": {
        "coding": [ {
          "system": "https://www.uicc.org/resources/tnm",
          "code": "VX"
        } ]
      },
      "method": {
        "coding": [ {
          "system": "https://www.medizininformatik-initiative.de/fhir/ext/modul-onko/CodeSystem/mii-cs-onko-tnm-version",
          "code": "8"
        } ]
      }
    },
    "request": {
      "method": "PUT",
      "url": "Observation/888742c41a2f9259da8bd4187ae8a9e917c4f323d7ab2bfc7e2577ce499c28f0"
    }
  }, {
    "fullUrl": "Observation/7925dbb0761b2096785e95ce967907be58248b3b106e675aa1cdcb4dddeed92d",
    "resource": {
      "resourceType": "Observation",
      "id": "7925dbb0761b2096785e95ce967907be58248b3b106e675aa1cdcb4dddeed92d",
      "meta": {
        "profile": [ "https://www.medizininformatik-initiative.de/fhir/ext/modul-onko/StructureDefinition/mii-pr-onko-tnm-klassifikation" ]
      },
      "identifier": [ {
        "system": "https://bzkf.github.io/obds-to-fhir/identifiers/tnm-grouping-observation-id",
        "value": "482"
      } ],
      "status": "final",
      "code": {
        "coding": [ {
          "system": "http://snomed.info/sct",
          "code": "399588009",
          "display": "Pathologic TNM stage grouping"
        } ]
      },
      "subject": {
        "reference": "Patient/a02e16474896f1d528cac71f2c9b4c45ac3c9028e3a53fb414a1f7882991ee07"
      },
      "focus": [ {
        "reference": "Condition/9896edd80f6833ea17fbb2c5ad5ca42caa1d02f41baea875f4a390be3b372356"
      } ],
      "effectiveDateTime": "2020-03-05",
      "valueCodeableConcept": {
        "coding": [ {
          "system": "https://www.uicc.org/resources/tnm",
          "code": "IV",
          "display": "Stadium IV"
        } ]
      },
      "method": {
        "coding": [ {
          "system": "https://www.medizininformatik-initiative.de/fhir/ext/modul-onko/CodeSystem/mii-cs-onko-tnm-version",
          "code": "8"
        } ]
      },
      "hasMember": [ {
        "reference": "Observation/aa3c5bb85d49e9ef61d09d3bd69ac6dbaccd202ce0d9c582ddf68367172ec89f"
      }, {
        "reference": "Observation/b62f438eee9a5349e92801825ce3acd90658ea9ac28ab76e40fa4afaf1b6ae71"
      }, {
        "reference": "Observation/660cb62aa766833529222617ba146e1287af7bbc68d51d3216441d518d02b256"
      }, {
        "reference": "Observation/a989355244d956a0d3562e40ab119befa2acdaf36be7fead971c3efdad03dd84"
      }, {
        "reference": "Observation/d8304bad7f664c22c37c3109749c50fab38979a9fb353bad9d536c6764a126bf"
      }, {
        "reference": "Observation/959f29df3df9f19b54a38319069d1591b30750b2a0ba7f86b0989596256ddcf4"
      }, {
        "reference": "Observation/888742c41a2f9259da8bd4187ae8a9e917c4f323d7ab2bfc7e2577ce499c28f0"
      } ]
    },
    "request": {
      "method": "PUT",
      "url": "Observation/7925dbb0761b2096785e95ce967907be58248b3b106e675aa1cdcb4dddeed92d"
    }
  }, {
    "fullUrl": "Procedure/cd1f9a1a39fedb333d953a94169407e9327425dbfa86215925f3e4190665bd52",
    "resource": {
      "resourceType": "Procedure",
      "id": "cd1f9a1a39fedb333d953a94169407e9327425dbfa86215925f3e4190665bd52",
      "meta": {
        "profile": [ "https://www.medizininformatik-initiative.de/fhir/ext/modul-onko/StructureDefinition/mii-pr-onko-operation" ]
      },
      "extension": [ {
        "url": "https://www.medizininformatik-initiative.de/fhir/ext/modul-onko/StructureDefinition/mii-ex-onko-operation-intention",
        "valueCodeableConcept": {
          "coding": [ {
            "system": "https://www.medizininformatik-initiative.de/fhir/ext/modul-onko/CodeSystem/mii-cs-onko-intention",
            "code": "K"
          } ]
        }
      } ],
      "identifier": [ {
        "system": "https://bzkf.github.io/obds-to-fhir/identifiers/operation-procedure-id",
        "value": "3015-870"
      } ],
      "status": "completed",
      "category": {
        "coding": [ {
          "system": "http://snomed.info/sct",
          "code": "387713003",
          "display": "Surgical procedure"
        } ]
      },
      "code": {
        "coding": [ {
          "system": "http://fhir.de/CodeSystem/bfarm/ops",
          "version": "2020",
          "code": "5-870"
        } ]
      },
      "subject": {
        "reference": "Patient/a02e16474896f1d528cac71f2c9b4c45ac3c9028e3a53fb414a1f7882991ee07"
      },
      "performedDateTime": "2020-03-05",
      "reasonReference": [ {
        "reference": "Condition/9896edd80f6833ea17fbb2c5ad5ca42caa1d02f41baea875f4a390be3b372356"
      } ],
      "outcome": {
        "coding": [ {
          "system": "https://www.medizininformatik-initiative.de/fhir/ext/modul-onko/CodeSystem/mii-cs-onko-residualstatus",
          "code": "R0"
        } ]
      }
    },
    "request": {
      "method": "PUT",
      "url": "Procedure/cd1f9a1a39fedb333d953a94169407e9327425dbfa86215925f3e4190665bd52"
    }
  }, {
    "fullUrl": "Procedure/977dad45e5c07e0024a93e282b5bcba0399826697e27041d7efa70c3b59beef4",
    "resource": {
      "resourceType": "Procedure",
      "id": "977dad45e5c07e0024a93e282b5bcba0399826697e27041d7efa70c3b59beef4",
      "meta": {
        "profile": [ "https://www.medizininformatik-initiative.de/fhir/ext/modul-onko/StructureDefinition/mii-pr-onko-operation" ]
      },
      "extension": [ {
        "url": "https://www.medizininformatik-initiative.de/fhir/ext/modul-onko/StructureDefinition/mii-ex-onko-operation-intention",
        "valueCodeableConcept": {
          "coding": [ {
            "system": "https://www.medizininformatik-initiative.de/fhir/ext/modul-onko/CodeSystem/mii-cs-onko-intention",
            "code": "K"
          } ]
        }
      } ],
      "identifier": [ {
        "system": "https://bzkf.github.io/obds-to-fhir/identifiers/operation-procedure-id",
        "value": "3015-401.1"
      } ],
      "status": "completed",
      "category": {
        "coding": [ {
          "system": "http://snomed.info/sct",
          "code": "387713003",
          "display": "Surgical procedure"
        } ]
      },
      "code": {
        "coding": [ {
          "system": "http://fhir.de/CodeSystem/bfarm/ops",
          "version": "2020",
          "code": "5-401.1"
        } ]
      },
      "subject": {
        "reference": "Patient/a02e16474896f1d528cac71f2c9b4c45ac3c9028e3a53fb414a1f7882991ee07"
      },
      "performedDateTime": "2020-03-05",
      "reasonReference": [ {
        "reference": "Condition/9896edd80f6833ea17fbb2c5ad5ca42caa1d02f41baea875f4a390be3b372356"
      } ],
      "outcome": {
        "coding": [ {
          "system": "https://www.medizininformatik-initiative.de/fhir/ext/modul-onko/CodeSystem/mii-cs-onko-residualstatus",
          "code": "R0"
        } ]
      }
    },
    "request": {
      "method": "PUT",
      "url": "Procedure/977dad45e5c07e0024a93e282b5bcba0399826697e27041d7efa70c3b59beef4"
    }
  }, {
    "fullUrl": "Observation/daa3a29e56fbbdcdf2d899040e8a515eb5ae62414b7e1478d79d0b499469bbcc",
    "resource": {
      "resourceType": "Observation",
      "id": "daa3a29e56fbbdcdf2d899040e8a515eb5ae62414b7e1478d79d0b499469bbcc",
      "identifier": [ {
        "system": "https://bzkf.github.io/obds-to-fhir/identifiers/residualstatus-observation-id",
        "value": "301"
      } ],
      "status": "final",
      "code": {
        "coding": [ {
          "system": "http://loinc.org",
          "code": "84892-9"
        } ]
      },
      "subject": {
        "reference": "Patient/a02e16474896f1d528cac71f2c9b4c45ac3c9028e3a53fb414a1f7882991ee07"
      },
      "focus": [ {
        "reference": "Condition/9896edd80f6833ea17fbb2c5ad5ca42caa1d02f41baea875f4a390be3b372356"
      } ],
      "effectiveDateTime": "2020-03-05",
      "valueCodeableConcept": {
        "coding": [ {
          "system": "https://www.medizininformatik-initiative.de/fhir/ext/modul-onko/CodeSystem/mii-cs-onko-residualstatus",
          "code": "R2"
        } ]
      }
    },
    "request": {
      "method": "PUT",
      "url": "Observation/daa3a29e56fbbdcdf2d899040e8a515eb5ae62414b7e1478d79d0b499469bbcc"
    }
  }, {
    "fullUrl": "Specimen/ae7c48028dc89cdd5b4accd5e83a6fe8db4f68d40f42b7494889f1844f49079b",
    "resource": {
      "resourceType": "Specimen",
      "id": "ae7c48028dc89cdd5b4accd5e83a6fe8db4f68d40f42b7494889f1844f49079b",
      "meta": {
        "profile": [ "https://www.medizininformatik-initiative.de/fhir/ext/modul-onko/StructureDefinition/mii-pr-onko-specimen" ]
      },
      "identifier": [ {
        "system": "https://bzkf.github.io/obds-to-fhir/identifiers/specimen-id",
        "value": "522"
      } ],
      "accessionIdentifier": {
        "value": "X/123456/1"
      },
      "subject": {
        "reference": "Patient/a02e16474896f1d528cac71f2c9b4c45ac3c9028e3a53fb414a1f7882991ee07"
      },
      "collection": {
        "collectedDateTime": "2020-03-05"
      }
    },
    "request": {
      "method": "PUT",
      "url": "Specimen/ae7c48028dc89cdd5b4accd5e83a6fe8db4f68d40f42b7494889f1844f49079b"
    }
  }, {
    "fullUrl": "Observation/37a28612024525aaf3362d3f9020bf10bd0326e7a862cd214ac2e27f5ba5c64f",
    "resource": {
      "resourceType": "Observation",
      "id": "37a28612024525aaf3362d3f9020bf10bd0326e7a862cd214ac2e27f5ba5c64f",
      "meta": {
        "profile": [ "https://www.medizininformatik-initiative.de/fhir/ext/modul-onko/StructureDefinition/mii-pr-onko-histologie-icdo3" ]
      },
      "identifier": [ {
        "system": "https://bzkf.github.io/obds-to-fhir/identifiers/observation-histologie-id",
        "value": "522_ICDO3_8010/3"
      } ],
      "status": "final",
      "code": {
        "coding": [ {
          "system": "http://loinc.org",
          "code": "59847-4"
        } ]
      },
      "subject": {
        "reference": "Patient/a02e16474896f1d528cac71f2c9b4c45ac3c9028e3a53fb414a1f7882991ee07"
      },
      "focus": [ {
        "reference": "Condition/9896edd80f6833ea17fbb2c5ad5ca42caa1d02f41baea875f4a390be3b372356"
      } ],
      "effectiveDateTime": "2020-03-05",
      "valueCodeableConcept": {
        "coding": [ {
          "system": "http://terminology.hl7.org/CodeSystem/icd-o-3",
          "version": "33",
          "code": "8010/3"
        } ],
        "text": "Karzinom o.n.A."
      },
      "specimen": {
        "reference": "Specimen/ae7c48028dc89cdd5b4accd5e83a6fe8db4f68d40f42b7494889f1844f49079b"
      }
    },
    "request": {
      "method": "PUT",
      "url": "Observation/37a28612024525aaf3362d3f9020bf10bd0326e7a862cd214ac2e27f5ba5c64f"
    }
  }, {
    "fullUrl": "Observation/b7d25ab89e2fdad446e5a2c06908fc6d1c23dd35facb9514b7e15c81029c20f4",
    "resource": {
      "resourceType": "Observation",
      "id": "b7d25ab89e2fdad446e5a2c06908fc6d1c23dd35facb9514b7e15c81029c20f4",
      "meta": {
        "profile": [ "https://www.medizininformatik-initiative.de/fhir/ext/modul-onko/StructureDefinition/mii-pr-onko-grading" ]
      },
      "identifier": [ {
        "system": "https://bzkf.github.io/obds-to-fhir/identifiers/grading-observation-id",
        "value": "522_Grading"
      } ],
      "status": "final",
      "category": [ {
        "coding": [ {
          "system": "http://terminology.hl7.org/CodeSystem/observation-category",
          "code": "laboratory"
        } ]
      } ],
      "code": {
        "coding": [ {
          "system": "http://loinc.org",
          "code": "33732-9"
        }, {
          "system": "http://snomed.info/sct",
          "code": "371469007"
        } ]
      },
      "subject": {
        "reference": "Patient/a02e16474896f1d528cac71f2c9b4c45ac3c9028e3a53fb414a1f7882991ee07"
      },
      "focus": [ {
        "reference": "Condition/9896edd80f6833ea17fbb2c5ad5ca42caa1d02f41baea875f4a390be3b372356"
      } ],
      "effectiveDateTime": "2020-03-05",
      "valueCodeableConcept": {
        "coding": [ {
          "system": "https://www.medizininformatik-initiative.de/fhir/ext/modul-onko/CodeSystem/mii-cs-onko-grading",
          "code": "2"
        } ]
      },
      "specimen": {
        "reference": "Specimen/ae7c48028dc89cdd5b4accd5e83a6fe8db4f68d40f42b7494889f1844f49079b"
      }
    },
    "request": {
      "method": "PUT",
      "url": "Observation/b7d25ab89e2fdad446e5a2c06908fc6d1c23dd35facb9514b7e15c81029c20f4"
    }
  }, {
    "fullUrl": "Observation/a9ad5110baad5cd5d5ba373b347ea74818aa8899bbc00e906a52e488e2f574ae",
    "resource": {
      "resourceType": "Observation",
      "id": "a9ad5110baad5cd5d5ba373b347ea74818aa8899bbc00e906a52e488e2f574ae",
      "meta": {
        "profile": [ "https://www.medizininformatik-initiative.de/fhir/ext/modul-onko/StructureDefinition/mii-pr-onko-anzahl-befallene-lymphknoten" ]
      },
      "identifier": [ {
        "system": "https://bzkf.github.io/obds-to-fhir/identifiers/observation-histologie-id",
        "value": "522_befallen"
      } ],
      "status": "final",
      "category": [ {
        "coding": [ {
          "system": "http://terminology.hl7.org/CodeSystem/observation-category",
          "code": "laboratory"
        } ]
      } ],
      "code": {
        "coding": [ {
          "system": "http://loinc.org",
          "code": "21893-3"
        }, {
          "system": "http://snomed.info/sct",
          "code": "443527007"
        } ]
      },
      "subject": {
        "reference": "Patient/a02e16474896f1d528cac71f2c9b4c45ac3c9028e3a53fb414a1f7882991ee07"
      },
      "focus": [ {
        "reference": "Condition/9896edd80f6833ea17fbb2c5ad5ca42caa1d02f41baea875f4a390be3b372356"
      } ],
      "effectiveDateTime": "2020-03-05",
      "valueQuantity": {
        "value": 2,
        "unit": "#",
        "system": "http://unitsofmeasure.org",
        "code": "1"
      },
      "specimen": {
        "reference": "Specimen/ae7c48028dc89cdd5b4accd5e83a6fe8db4f68d40f42b7494889f1844f49079b"
      }
    },
    "request": {
      "method": "PUT",
      "url": "Observation/a9ad5110baad5cd5d5ba373b347ea74818aa8899bbc00e906a52e488e2f574ae"
    }
  }, {
    "fullUrl": "Observation/4d5e5848caf4c5c2e960b813d83c17aed7fd14ec0faa8668db7b00df95528359",
    "resource": {
      "resourceType": "Observation",
      "id": "4d5e5848caf4c5c2e960b813d83c17aed7fd14ec0faa8668db7b00df95528359",
      "meta": {
        "profile": [ "https://www.medizininformatik-initiative.de/fhir/ext/modul-onko/StructureDefinition/mii-pr-onko-anzahl-untersuchte-lymphknoten" ]
      },
      "identifier": [ {
        "system": "https://bzkf.github.io/obds-to-fhir/identifiers/observation-histologie-id",
        "value": "522_untersucht"
      } ],
      "status": "final",
      "category": [ {
        "coding": [ {
          "system": "http://terminology.hl7.org/CodeSystem/observation-category",
          "code": "laboratory"
        } ]
      } ],
      "code": {
        "coding": [ {
          "system": "http://loinc.org",
          "code": "21894-1"
        }, {
          "system": "http://snomed.info/sct",
          "code": "444025001"
        } ]
      },
      "subject": {
        "reference": "Patient/a02e16474896f1d528cac71f2c9b4c45ac3c9028e3a53fb414a1f7882991ee07"
      },
      "focus": [ {
        "reference": "Condition/9896edd80f6833ea17fbb2c5ad5ca42caa1d02f41baea875f4a390be3b372356"
      } ],
      "effectiveDateTime": "2020-03-05",
      "valueQuantity": {
        "value": 10,
        "unit": "#",
        "system": "http://unitsofmeasure.org",
        "code": "1"
      },
      "specimen": {
        "reference": "Specimen/ae7c48028dc89cdd5b4accd5e83a6fe8db4f68d40f42b7494889f1844f49079b"
      }
    },
    "request": {
      "method": "PUT",
      "url": "Observation/4d5e5848caf4c5c2e960b813d83c17aed7fd14ec0faa8668db7b00df95528359"
    }
  }, {
    "fullUrl": "Observation/19c7c01cbe221e80ff3c3f466f3df9ba519a8f234616c99c7eef8817d4f342d9",
    "resource": {
      "resourceType": "Observation",
      "id": "19c7c01cbe221e80ff3c3f466f3df9ba519a8f234616c99c7eef8817d4f342d9",
      "meta": {
        "profile": [ "https://www.medizininformatik-initiative.de/fhir/ext/modul-onko/StructureDefinition/mii-pr-onko-anzahl-befallene-sentinel-lymphknoten" ]
      },
      "identifier": [ {
        "system": "https://bzkf.github.io/obds-to-fhir/identifiers/observation-histologie-id",
        "value": "522_befallen_sentinel"
      } ],
      "status": "final",
      "category": [ {
        "coding": [ {
          "system": "http://terminology.hl7.org/CodeSystem/observation-category",
          "code": "laboratory"
        } ]
      } ],
      "code": {
        "coding": [ {
          "system": "http://loinc.org",
          "code": "92832-5"
        }, {
          "system": "http://snomed.info/sct",
          "code": "1264491009"
        } ]
      },
      "subject": {
        "reference": "Patient/a02e16474896f1d528cac71f2c9b4c45ac3c9028e3a53fb414a1f7882991ee07"
      },
      "focus": [ {
        "reference": "Condition/9896edd80f6833ea17fbb2c5ad5ca42caa1d02f41baea875f4a390be3b372356"
      } ],
      "effectiveDateTime": "2020-03-05",
      "valueQuantity": {
        "value": 1,
        "unit": "#",
        "system": "http://unitsofmeasure.org",
        "code": "1"
      },
      "specimen": {
        "reference": "Specimen/ae7c48028dc89cdd5b4accd5e83a6fe8db4f68d40f42b7494889f1844f49079b"
      }
    },
    "request": {
      "method": "PUT",
      "url": "Observation/19c7c01cbe221e80ff3c3f466f3df9ba519a8f234616c99c7eef8817d4f342d9"
    }
  }, {
    "fullUrl": "Observation/9c2af727f1c18780ed2a5547fab8a1bd1f358cab563a4f0a057b0449a0890827",
    "resource": {
      "resourceType": "Observation",
      "id": "9c2af727f1c18780ed2a5547fab8a1bd1f358cab563a4f0a057b0449a0890827",
      "meta": {
        "profile": [ "https://www.medizininformatik-initiative.de/fhir/ext/modul-onko/StructureDefinition/mii-pr-onko-anzahl-untersuchte-sentinel-lymphknoten" ]
      },
      "identifier": [ {
        "system": "https://bzkf.github.io/obds-to-fhir/identifiers/observation-histologie-id",
        "value": "522_untersucht_sentinel"
      } ],
      "status": "final",
      "category": [ {
        "coding": [ {
          "system": "http://terminology.hl7.org/CodeSystem/observation-category",
          "code": "laboratory"
        } ]
      } ],
      "code": {
        "coding": [ {
          "system": "http://loinc.org",
          "code": "85347-3"
        }, {
          "system": "http://snomed.info/sct",
          "code": "444411008"
        } ]
      },
      "subject": {
        "reference": "Patient/a02e16474896f1d528cac71f2c9b4c45ac3c9028e3a53fb414a1f7882991ee07"
      },
      "focus": [ {
        "reference": "Condition/9896edd80f6833ea17fbb2c5ad5ca42caa1d02f41baea875f4a390be3b372356"
      } ],
      "effectiveDateTime": "2020-03-05",
      "valueQuantity": {
        "value": 2,
        "unit": "#",
        "system": "http://unitsofmeasure.org",
        "code": "1"
      },
      "specimen": {
        "reference": "Specimen/ae7c48028dc89cdd5b4accd5e83a6fe8db4f68d40f42b7494889f1844f49079b"
      }
    },
    "request": {
      "method": "PUT",
      "url": "Observation/9c2af727f1c18780ed2a5547fab8a1bd1f358cab563a4f0a057b0449a0890827"
    }
  }, {
    "fullUrl": "Observation/18833e9071cdfe54875ad2727a4b1a07d4e44af439fa7fbc9cf0d1b97a45b36f",
    "resource": {
      "resourceType": "Observation",
      "id": "18833e9071cdfe54875ad2727a4b1a07d4e44af439fa7fbc9cf0d1b97a45b36f",
      "meta": {
        "profile": [ "https://www.medizininformatik-initiative.de/fhir/ext/modul-onko/StructureDefinition/mii-pr-onko-tnm-t-kategorie" ]
      },
      "identifier": [ {
        "system": "483_T",
        "value": "https://bzkf.github.io/obds-to-fhir/identifiers/tnm-t-kategorie-observation-id"
      } ],
      "status": "final",
      "code": {
        "extension": [ {
          "url": "https://www.medizininformatik-initiative.de/fhir/ext/modul-onko/StructureDefinition/mii-ex-onko-tnm-cp-praefix",
          "valueCodeableConcept": {
            "coding": [ {
              "system": "https://www.uicc.org/resources/tnm",
              "code": "p"
            } ]
          }
        } ],
        "coding": [ {
          "system": "http://snomed.info/sct",
          "code": "384625004",
          "display": "pT category (observable entity)"
        } ]
      },
      "subject": {
        "reference": "Patient/a02e16474896f1d528cac71f2c9b4c45ac3c9028e3a53fb414a1f7882991ee07"
      },
      "focus": [ {
        "reference": "Condition/9896edd80f6833ea17fbb2c5ad5ca42caa1d02f41baea875f4a390be3b372356"
      } ],
      "effectiveDateTime": "2020-03-05",
      "valueCodeableConcept": {
        "coding": [ {
          "system": "https://www.uicc.org/resources/tnm",
          "code": "2"
        } ]
      },
      "method": {
        "coding": [ {
          "system": "https://www.medizininformatik-initiative.de/fhir/ext/modul-onko/CodeSystem/mii-cs-onko-tnm-version",
          "code": "8"
        } ]
      }
    },
    "request": {
      "method": "PUT",
      "url": "Observation/18833e9071cdfe54875ad2727a4b1a07d4e44af439fa7fbc9cf0d1b97a45b36f"
    }
  }, {
    "fullUrl": "Observation/e297c3596a1c1fe70a61f16414b821f26933a47154fe66a71a1b338e318976fe",
    "resource": {
      "resourceType": "Observation",
      "id": "e297c3596a1c1fe70a61f16414b821f26933a47154fe66a71a1b338e318976fe",
      "meta": {
        "profile": [ "https://www.medizininformatik-initiative.de/fhir/ext/modul-onko/StructureDefinition/mii-pr-onko-tnm-n-kategorie" ]
      },
      "identifier": [ {
        "system": "483_N",
        "value": "https://bzkf.github.io/obds-to-fhir/identifiers/tnm-n-kategorie-observation-id"
      } ],
      "status": "final",
      "code": {
        "extension": [ {
          "url": "https://www.medizininformatik-initiative.de/fhir/ext/modul-onko/StructureDefinition/mii-ex-onko-tnm-cp-praefix",
          "valueCodeableConcept": {
            "coding": [ {
              "system": "https://www.uicc.org/resources/tnm",
              "code": "p"
            } ]
          }
        } ],
        "coding": [ {
          "system": "http://snomed.info/sct",
          "code": "371494008",
          "display": "pN category (observable entity)"
        } ]
      },
      "subject": {
        "reference": "Patient/a02e16474896f1d528cac71f2c9b4c45ac3c9028e3a53fb414a1f7882991ee07"
      },
      "focus": [ {
        "reference": "Condition/9896edd80f6833ea17fbb2c5ad5ca42caa1d02f41baea875f4a390be3b372356"
      } ],
      "effectiveDateTime": "2020-03-05",
      "valueCodeableConcept": {
        "coding": [ {
          "system": "https://www.uicc.org/resources/tnm",
          "code": "1"
        } ]
      },
      "method": {
        "coding": [ {
          "system": "https://www.medizininformatik-initiative.de/fhir/ext/modul-onko/CodeSystem/mii-cs-onko-tnm-version",
          "code": "8"
        } ]
      }
    },
    "request": {
      "method": "PUT",
      "url": "Observation/e297c3596a1c1fe70a61f16414b821f26933a47154fe66a71a1b338e318976fe"
    }
  }, {
    "fullUrl": "Observation/141256179066bd2fdb860081341da138cba450ca75e02fe01b418b96ceaadc2d",
    "resource": {
      "resourceType": "Observation",
      "id": "141256179066bd2fdb860081341da138cba450ca75e02fe01b418b96ceaadc2d",
      "meta": {
        "profile": [ "https://www.medizininformatik-initiative.de/fhir/ext/modul-onko/StructureDefinition/mii-pr-onko-tnm-m-kategorie" ]
      },
      "identifier": [ {
        "system": "483_M",
        "value": "https://bzkf.github.io/obds-to-fhir/identifiers/tnm-m-kategorie-observation-id"
      } ],
      "status": "final",
      "code": {
        "extension": [ {
          "url": "https://www.medizininformatik-initiative.de/fhir/ext/modul-onko/StructureDefinition/mii-ex-onko-tnm-cp-praefix",
          "valueCodeableConcept": {
            "coding": [ {
              "system": "https://www.uicc.org/resources/tnm",
              "code": "p"
            } ]
          }
        } ],
        "coding": [ {
          "system": "http://snomed.info/sct",
          "code": "371497001",
          "display": "pM category (observable entity)"
        } ]
      },
      "subject": {
        "reference": "Patient/a02e16474896f1d528cac71f2c9b4c45ac3c9028e3a53fb414a1f7882991ee07"
      },
      "focus": [ {
        "reference": "Condition/9896edd80f6833ea17fbb2c5ad5ca42caa1d02f41baea875f4a390be3b372356"
      } ],
      "effectiveDateTime": "2020-03-05",
      "valueCodeableConcept": {
        "coding": [ {
          "system": "https://www.uicc.org/resources/tnm",
          "code": "1"
        } ]
      },
      "method": {
        "coding": [ {
          "system": "https://www.medizininformatik-initiative.de/fhir/ext/modul-onko/CodeSystem/mii-cs-onko-tnm-version",
          "code": "8"
        } ]
      }
    },
    "request": {
      "method": "PUT",
      "url": "Observation/141256179066bd2fdb860081341da138cba450ca75e02fe01b418b96ceaadc2d"
    }
  }, {
    "fullUrl": "Observation/dd23874b17afcc4bd6b809f9190c4bad75c82fe6d16ff3ce9ba6b647f85b9ad7",
    "resource": {
      "resourceType": "Observation",
      "id": "dd23874b17afcc4bd6b809f9190c4bad75c82fe6d16ff3ce9ba6b647f85b9ad7",
      "meta": {
        "profile": [ "https://www.medizininformatik-initiative.de/fhir/ext/modul-onko/StructureDefinition/mii-pr-onko-tnm-m-symbol" ]
      },
      "identifier": [ {
        "system": "483_m",
        "value": "https://bzkf.github.io/obds-to-fhir/identifiers/tnm-m-symbol-observation-id"
      } ],
      "status": "final",
      "code": {
        "coding": [ {
          "system": "http://loinc.org",
          "code": "42030-7"
        } ]
      },
      "subject": {
        "reference": "Patient/a02e16474896f1d528cac71f2c9b4c45ac3c9028e3a53fb414a1f7882991ee07"
      },
      "focus": [ {
        "reference": "Condition/9896edd80f6833ea17fbb2c5ad5ca42caa1d02f41baea875f4a390be3b372356"
      } ],
      "effectiveDateTime": "2020-03-05",
      "valueCodeableConcept": {
        "coding": [ {
          "system": "https://www.uicc.org/resources/tnm",
          "code": "3"
        } ]
      },
      "method": {
        "coding": [ {
          "system": "https://www.medizininformatik-initiative.de/fhir/ext/modul-onko/CodeSystem/mii-cs-onko-tnm-version",
          "code": "8"
        } ]
      }
    },
    "request": {
      "method": "PUT",
      "url": "Observation/dd23874b17afcc4bd6b809f9190c4bad75c82fe6d16ff3ce9ba6b647f85b9ad7"
    }
  }, {
    "fullUrl": "Observation/defe367e7da345afcfc192d55aa8445c9896296062d08fe21a480418abb60f8e",
    "resource": {
      "resourceType": "Observation",
      "id": "defe367e7da345afcfc192d55aa8445c9896296062d08fe21a480418abb60f8e",
      "meta": {
        "profile": [ "https://www.medizininformatik-initiative.de/fhir/ext/modul-onko/StructureDefinition/mii-pr-onko-tnm-l-kategorie" ]
      },
      "identifier": [ {
        "system": "483_L",
        "value": "https://bzkf.github.io/obds-to-fhir/identifiers/tnm-l-kategorie-observation-id"
      } ],
      "status": "final",
      "code": {
        "coding": [ {
          "system": "http://snomed.info/sct",
          "code": "395715009"
        } ]
      },
      "subject": {
        "reference": "Patient/a02e16474896f1d528cac71f2c9b4c45ac3c9028e3a53fb414a1f7882991ee07"
      },
      "focus": [ {
        "reference": "Condition/9896edd80f6833ea17fbb2c5ad5ca42caa1d02f41baea875f4a390be3b372356"
      } ],
      "effectiveDateTime": "2020-03-05",
      "valueCodeableConcept": {
        "coding": [ {
          "system": "https://www.uicc.org/resources/tnm",
          "code": "L0"
        } ]
      },
      "method": {
        "coding": [ {
          "system": "https://www.medizininformatik-initiative.de/fhir/ext/modul-onko/CodeSystem/mii-cs-onko-tnm-version",
          "code": "8"
        } ]
      }
    },
    "request": {
      "method": "PUT",
      "url": "Observation/defe367e7da345afcfc192d55aa8445c9896296062d08fe21a480418abb60f8e"
    }
  }, {
    "fullUrl": "Observation/2537ef2ec8004a796f6f7da0c3065fab88674ca0ed83656f329cd60d257dfbcc",
    "resource": {
      "resourceType": "Observation",
      "id": "2537ef2ec8004a796f6f7da0c3065fab88674ca0ed83656f329cd60d257dfbcc",
      "meta": {
        "profile": [ "\thttps://www.medizininformatik-initiative.de/fhir/ext/modul-onko/StructureDefinition/mii-pr-onko-tnm-pn-kategorie" ]
      },
      "identifier": [ {
        "system": "483_Pn",
        "value": "https://bzkf.github.io/obds-to-fhir/identifiers/tnm-pn-kategorie-observation-id"
      } ],
      "status": "final",
      "code": {
        "coding": [ {
          "system": "http://snomed.info/sct",
          "code": "371513001"
        } ]
      },
      "subject": {
        "reference": "Patient/a02e16474896f1d528cac71f2c9b4c45ac3c9028e3a53fb414a1f7882991ee07"
      },
      "focus": [ {
        "reference": "Condition/9896edd80f6833ea17fbb2c5ad5ca42caa1d02f41baea875f4a390be3b372356"
      } ],
      "effectiveDateTime": "2020-03-05",
      "valueCodeableConcept": {
        "coding": [ {
          "system": "https://www.uicc.org/resources/tnm",
          "code": "Pn0"
        } ]
      },
      "method": {
        "coding": [ {
          "system": "https://www.medizininformatik-initiative.de/fhir/ext/modul-onko/CodeSystem/mii-cs-onko-tnm-version",
          "code": "8"
        } ]
      }
    },
    "request": {
      "method": "PUT",
      "url": "Observation/2537ef2ec8004a796f6f7da0c3065fab88674ca0ed83656f329cd60d257dfbcc"
    }
  }, {
    "fullUrl": "Observation/d2a73f9778544fd5e408c8de56592194732760addff4c5d549decf669998bffe",
    "resource": {
      "resourceType": "Observation",
      "id": "d2a73f9778544fd5e408c8de56592194732760addff4c5d549decf669998bffe",
      "meta": {
        "profile": [ "https://www.medizininformatik-initiative.de/fhir/ext/modul-onko/StructureDefinition/mii-pr-onko-tnm-v-kategorie" ]
      },
      "identifier": [ {
        "system": "483_V",
        "value": "https://bzkf.github.io/obds-to-fhir/identifiers/tnm-v-kategorie-observation-id"
      } ],
      "status": "final",
      "code": {
        "coding": [ {
          "system": "http://snomed.info/sct",
          "code": "371493002"
        } ]
      },
      "subject": {
        "reference": "Patient/a02e16474896f1d528cac71f2c9b4c45ac3c9028e3a53fb414a1f7882991ee07"
      },
      "focus": [ {
        "reference": "Condition/9896edd80f6833ea17fbb2c5ad5ca42caa1d02f41baea875f4a390be3b372356"
      } ],
      "effectiveDateTime": "2020-03-05",
      "valueCodeableConcept": {
        "coding": [ {
          "system": "https://www.uicc.org/resources/tnm",
          "code": "V0"
        } ]
      },
      "method": {
        "coding": [ {
          "system": "https://www.medizininformatik-initiative.de/fhir/ext/modul-onko/CodeSystem/mii-cs-onko-tnm-version",
          "code": "8"
        } ]
      }
    },
    "request": {
      "method": "PUT",
      "url": "Observation/d2a73f9778544fd5e408c8de56592194732760addff4c5d549decf669998bffe"
    }
  }, {
    "fullUrl": "Observation/a298575458f69b4c9484a1a7b78a15f8bbf75ec2d1fa84952746707b1a344b13",
    "resource": {
      "resourceType": "Observation",
      "id": "a298575458f69b4c9484a1a7b78a15f8bbf75ec2d1fa84952746707b1a344b13",
      "meta": {
        "profile": [ "https://www.medizininformatik-initiative.de/fhir/ext/modul-onko/StructureDefinition/mii-pr-onko-tnm-klassifikation" ]
      },
      "identifier": [ {
        "system": "https://bzkf.github.io/obds-to-fhir/identifiers/tnm-grouping-observation-id",
        "value": "483"
      } ],
      "status": "final",
      "code": {
        "coding": [ {
          "system": "http://snomed.info/sct",
          "code": "399588009",
          "display": "TNM stage grouping"
        } ]
      },
      "subject": {
        "reference": "Patient/a02e16474896f1d528cac71f2c9b4c45ac3c9028e3a53fb414a1f7882991ee07"
      },
      "focus": [ {
        "reference": "Condition/9896edd80f6833ea17fbb2c5ad5ca42caa1d02f41baea875f4a390be3b372356"
      } ],
      "effectiveDateTime": "2020-03-05",
      "valueCodeableConcept": {
        "coding": [ {
          "system": "https://www.uicc.org/resources/tnm",
          "code": "IV",
          "display": "Stadium IV"
        } ]
      },
      "method": {
        "coding": [ {
          "system": "https://www.medizininformatik-initiative.de/fhir/ext/modul-onko/CodeSystem/mii-cs-onko-tnm-version",
          "code": "8"
        } ]
      },
      "hasMember": [ {
        "reference": "Observation/18833e9071cdfe54875ad2727a4b1a07d4e44af439fa7fbc9cf0d1b97a45b36f"
      }, {
        "reference": "Observation/e297c3596a1c1fe70a61f16414b821f26933a47154fe66a71a1b338e318976fe"
      }, {
        "reference": "Observation/141256179066bd2fdb860081341da138cba450ca75e02fe01b418b96ceaadc2d"
      }, {
        "reference": "Observation/dd23874b17afcc4bd6b809f9190c4bad75c82fe6d16ff3ce9ba6b647f85b9ad7"
      }, {
        "reference": "Observation/defe367e7da345afcfc192d55aa8445c9896296062d08fe21a480418abb60f8e"
      }, {
        "reference": "Observation/2537ef2ec8004a796f6f7da0c3065fab88674ca0ed83656f329cd60d257dfbcc"
      }, {
        "reference": "Observation/d2a73f9778544fd5e408c8de56592194732760addff4c5d549decf669998bffe"
      } ]
    },
    "request": {
      "method": "PUT",
      "url": "Observation/a298575458f69b4c9484a1a7b78a15f8bbf75ec2d1fa84952746707b1a344b13"
    }
  }, {
    "fullUrl": "Procedure/bfc5c7a0c00d1c00e9ab41a4507f8cfbbc87e13953eba89e14c3fe3a54325559",
    "resource": {
      "resourceType": "Procedure",
      "id": "bfc5c7a0c00d1c00e9ab41a4507f8cfbbc87e13953eba89e14c3fe3a54325559",
      "meta": {
        "profile": [ "https://www.medizininformatik-initiative.de/fhir/ext/modul-onko/StructureDefinition/mii-pr-onko-strahlentherapie" ]
      },
      "extension": [ {
        "url": "https://www.medizininformatik-initiative.de/fhir/ext/modul-onko/StructureDefinition/mii-ex-onko-strahlentherapie-intention",
        "valueCodeableConcept": {
          "coding": [ {
            "system": "https://www.medizininformatik-initiative.de/fhir/ext/modul-onko/CodeSystem/mii-cs-onko-intention",
            "code": "K"
          } ]
        }
      }, {
        "url": "https://www.medizininformatik-initiative.de/fhir/ext/modul-onko/StructureDefinition/mii-ex-onko-strahlentherapie-stellungzurop",
        "valueCodeableConcept": {
          "coding": [ {
            "system": "https://www.medizininformatik-initiative.de/fhir/ext/modul-onko/CodeSystem/mii-cs-onko-therapie-stellungzurop",
            "code": "S"
          } ]
        }
      }, {
        "url": "https://www.medizininformatik-initiative.de/fhir/ext/modul-onko/StructureDefinition/mii-ex-onko-strahlentherapie-bestrahlung",
        "extension": [ {
          "url": "Applikationsart",
          "valueCodeableConcept": {
            "coding": [ {
              "system": "https://www.medizininformatik-initiative.de/fhir/ext/modul-onko/CodeSystem/mii-cs-onko-strahlentherapie-applikationsart",
              "code": "PRCN-ST4D"
            } ]
          }
        }, {
          "url": "Strahlenart",
          "valueCodeableConcept": {
            "coding": [ {
              "system": "https://www.medizininformatik-initiative.de/fhir/ext/modul-onko/CodeSystem/mii-cs-onko-strahlentherapie-strahlenart",
              "code": "Co-60"
            } ]
          }
        }, {
          "url": "Zielgebiet",
          "valueCodeableConcept": {
            "coding": [ {
              "system": "https://www.medizininformatik-initiative.de/fhir/ext/modul-onko/CodeSystem/mii-cs-onko-strahlentherapie-zielgebiet",
              "code": "3.1.-"
            } ]
          }
        }, {
          "url": "Zielgebiet_Lateralitaet",
          "valueCodeableConcept": {
            "coding": [ {
              "system": "https://www.medizininformatik-initiative.de/fhir/ext/modul-onko/CodeSystem/mii-cs-onko-seitenlokalisation",
              "code": "U"
            } ]
          }
        }, {
          "url": "Gesamtdosis",
          "valueQuantity": {
            "value": 30.3,
            "unit": "Gy",
            "system": "http://unitsofmeasure.org",
            "code": "Gy"
          }
        }, {
          "url": "Einzeldosis",
          "valueQuantity": {
            "value": 5.8,
            "unit": "Gy",
            "system": "http://unitsofmeasure.org",
            "code": "Gy"
          }
        }, {
          "url": "Boost",
          "valueCodeableConcept": {
            "coding": [ {
              "system": "https://www.medizininformatik-initiative.de/fhir/ext/modul-onko/CodeSystem/mii-cs-onko-strahlentherapie-boost",
              "code": "KON"
            } ]
          }
        } ]
      }, {
        "url": "https://www.medizininformatik-initiative.de/fhir/ext/modul-onko/StructureDefinition/mii-ex-onko-strahlentherapie-bestrahlung",
        "extension": [ {
          "url": "Applikationsart",
          "valueCodeableConcept": {
            "coding": [ {
              "system": "https://www.medizininformatik-initiative.de/fhir/ext/modul-onko/CodeSystem/mii-cs-onko-strahlentherapie-applikationsart",
              "code": "IHDR"
            } ]
          }
        }, {
          "url": "Strahlenart",
          "valueCodeableConcept": {
            "coding": [ {
              "system": "https://www.medizininformatik-initiative.de/fhir/ext/modul-onko/CodeSystem/mii-cs-onko-strahlentherapie-strahlenart",
              "code": "SO"
            } ]
          }
        }, {
          "url": "Zielgebiet",
          "valueCodeableConcept": {
            "coding": [ {
              "system": "https://www.medizininformatik-initiative.de/fhir/ext/modul-onko/CodeSystem/mii-cs-onko-strahlentherapie-zielgebiet",
              "code": "6.10"
            } ]
          }
        }, {
          "url": "Zielgebiet_Lateralitaet",
          "valueCodeableConcept": {
            "coding": [ {
              "system": "https://www.medizininformatik-initiative.de/fhir/ext/modul-onko/CodeSystem/mii-cs-onko-seitenlokalisation",
              "code": "L"
            } ]
          }
        }, {
          "url": "Gesamtdosis",
          "valueQuantity": {
            "value": 30,
            "unit": "Gy",
            "system": "http://unitsofmeasure.org",
            "code": "Gy"
          }
        }, {
          "url": "Einzeldosis",
          "valueQuantity": {
            "value": 5,
            "unit": "Gy",
            "system": "http://unitsofmeasure.org",
            "code": "Gy"
          }
        }, {
          "url": "Boost",
          "valueCodeableConcept": {
            "coding": [ {
              "system": "https://www.medizininformatik-initiative.de/fhir/ext/modul-onko/CodeSystem/mii-cs-onko-strahlentherapie-boost",
              "code": "N"
            } ]
          }
        } ]
      }, {
        "url": "https://www.medizininformatik-initiative.de/fhir/ext/modul-onko/StructureDefinition/mii-ex-onko-strahlentherapie-bestrahlung",
        "extension": [ {
          "url": "Applikationsart",
          "valueCodeableConcept": {
            "coding": [ {
              "system": "https://www.medizininformatik-initiative.de/fhir/ext/modul-onko/CodeSystem/mii-cs-onko-strahlentherapie-applikationsart",
              "code": "MPRRT"
            } ]
          }
        }, {
          "url": "Strahlenart",
          "valueCodeableConcept": {
            "coding": [ {
              "system": "https://www.medizininformatik-initiative.de/fhir/ext/modul-onko/CodeSystem/mii-cs-onko-strahlentherapie-strahlenart",
              "code": "Y-90"
            } ]
          }
        }, {
          "url": "Zielgebiet",
          "valueCodeableConcept": {
            "coding": [ {
              "system": "https://www.medizininformatik-initiative.de/fhir/ext/modul-onko/CodeSystem/mii-cs-onko-strahlentherapie-zielgebiet",
              "code": "7.+"
            } ]
          }
        }, {
          "url": "Zielgebiet_Lateralitaet",
          "valueCodeableConcept": {
            "coding": [ {
              "system": "https://www.medizininformatik-initiative.de/fhir/ext/modul-onko/CodeSystem/mii-cs-onko-seitenlokalisation",
              "code": "U"
            } ]
          }
        }, {
          "url": "Einzeldosis",
          "valueQuantity": {
            "value": 20,
            "unit": "GBq",
            "system": "http://unitsofmeasure.org",
            "code": "GBq"
          }
        }, {
          "url": "Gesamtdosis",
          "valueQuantity": {
            "value": 20,
            "unit": "GBq",
            "system": "http://unitsofmeasure.org",
            "code": "GBq"
          }
        } ]
      }, {
        "url": "https://www.medizininformatik-initiative.de/fhir/ext/modul-onko/StructureDefinition/mii-ex-onko-strahlentherapie-bestrahlung",
        "extension": [ {
          "url": "Applikationsart",
          "valueCodeableConcept": {
            "coding": [ {
              "system": "https://www.medizininformatik-initiative.de/fhir/ext/modul-onko/CodeSystem/mii-cs-onko-strahlentherapie-applikationsart",
              "code": "S"
            } ]
          }
        }, {
          "url": "Zielgebiet",
          "valueCodeableConcept": {
            "coding": [ {
              "system": "https://www.medizininformatik-initiative.de/fhir/ext/modul-onko/CodeSystem/mii-cs-onko-strahlentherapie-zielgebiet",
              "code": "6.16"
            } ]
          }
        }, {
          "url": "Zielgebiet_Lateralitaet",
          "valueCodeableConcept": {
            "coding": [ {
              "system": "https://www.medizininformatik-initiative.de/fhir/ext/modul-onko/CodeSystem/mii-cs-onko-seitenlokalisation",
              "code": "B"
            } ]
          }
        }, {
          "url": "Gesamtdosis",
          "valueQuantity": {
            "value": 10.5,
            "unit": "Gy",
            "system": "http://unitsofmeasure.org",
            "code": "Gy"
          }
        }, {
          "url": "Einzeldosis",
          "valueQuantity": {
            "value": 1.1,
            "unit": "Gy",
            "system": "http://unitsofmeasure.org",
            "code": "Gy"
          }
        } ]
      } ],
      "identifier": [ {
        "system": "https://bzkf.github.io/obds-to-fhir/identifiers/strahlentherapie-procedure-id",
        "value": "101_ST-2"
      } ],
      "status": "completed",
      "category": {
        "coding": [ {
          "system": "http://snomed.info/sct",
          "code": "1287742003",
          "display": "Radiotherapy (procedure)"
        } ]
      },
      "code": {
        "coding": [ {
          "system": "http://fhir.de/CodeSystem/bfarm/ops",
          "version": "2025",
          "code": "8-52",
          "display": "Strahlentherapie"
        } ]
      },
      "subject": {
        "reference": "Patient/a02e16474896f1d528cac71f2c9b4c45ac3c9028e3a53fb414a1f7882991ee07"
      },
      "performedPeriod": {
        "start": "2020-03-10",
        "end": "2020-03-20"
      },
      "reasonReference": [ {
        "reference": "Condition/9896edd80f6833ea17fbb2c5ad5ca42caa1d02f41baea875f4a390be3b372356"
      } ],
      "outcome": {
        "coding": [ {
          "system": "https://www.medizininformatik-initiative.de/fhir/ext/modul-onko/CodeSystem/mii-cs-onko-therapie-ende-grund",
          "code": "E"
        } ]
      }
    },
    "request": {
      "method": "PUT",
      "url": "Procedure/bfc5c7a0c00d1c00e9ab41a4507f8cfbbc87e13953eba89e14c3fe3a54325559"
    }
  }, {
    "fullUrl": "Procedure/8e5a61d808bb30074e894fc702086b24763c410267b91c86f75de0b3b6507ccf",
    "resource": {
      "resourceType": "Procedure",
      "id": "8e5a61d808bb30074e894fc702086b24763c410267b91c86f75de0b3b6507ccf",
      "meta": {
        "profile": [ "https://www.medizininformatik-initiative.de/fhir/ext/modul-onko/StructureDefinition/mii-pr-onko-systemische-therapie" ]
      },
      "extension": [ {
        "url": "https://www.medizininformatik-initiative.de/fhir/ext/modul-onko/StructureDefinition/mii-ex-onko-systemische-therapie-intention",
        "valueCodeableConcept": {
          "coding": [ {
            "system": "https://www.medizininformatik-initiative.de/fhir/ext/modul-onko/CodeSystem/mii-cs-onko-intention",
            "code": "P"
          } ]
        }
      }, {
        "url": "https://www.medizininformatik-initiative.de/fhir/ext/modul-onko/StructureDefinition/mii-ex-onko-strahlentherapie-stellungzurop",
        "valueCodeableConcept": {
          "coding": [ {
            "system": "https://www.medizininformatik-initiative.de/fhir/ext/modul-onko/CodeSystem/mii-cs-onko-therapie-stellungzurop",
            "code": "S"
          } ]
        }
      } ],
      "identifier": [ {
        "system": "https://bzkf.github.io/obds-to-fhir/identifiers/systemische-therapie-procedure-id",
        "value": "101_IN-1"
      } ],
      "status": "completed",
      "category": {
        "coding": [ {
          "system": "http://snomed.info/sct",
          "code": "18629005"
        } ]
      },
      "code": {
        "coding": [ {
          "system": "http://fhir.de/CodeSystem/bfarm/ops",
          "code": "8-54"
        }, {
          "system": "https://www.medizininformatik-initiative.de/fhir/ext/modul-onko/CodeSystem/mii-cs-onko-therapie-typ",
          "code": "IM"
        } ]
      },
      "subject": {
        "reference": "Patient/a02e16474896f1d528cac71f2c9b4c45ac3c9028e3a53fb414a1f7882991ee07"
      },
      "performedPeriod": {
        "start": "2020-05",
        "end": "2020-10-15"
      },
      "outcome": {
        "coding": [ {
          "system": "https://www.medizininformatik-initiative.de/fhir/ext/modul-onko/CodeSystem/mii-cs-therapie-grund-ende",
          "code": "V"
        } ]
      }
    },
    "request": {
      "method": "PUT",
      "url": "Procedure/8e5a61d808bb30074e894fc702086b24763c410267b91c86f75de0b3b6507ccf"
    }
  }, {
    "fullUrl": "MedicationStatement/050a031e5a9043c28c565c6b60550c3d34cd059bc2f24c195cdb807f099cd978",
    "resource": {
      "resourceType": "MedicationStatement",
      "id": "050a031e5a9043c28c565c6b60550c3d34cd059bc2f24c195cdb807f099cd978",
      "meta": {
        "profile": [ "https://www.medizininformatik-initiative.de/fhir/core/modul-medikation/StructureDefinition/MedicationStatement" ]
      },
      "identifier": [ {
        "system": "https://bzkf.github.io/obds-to-fhir/identifiers/systemische-therapie-medication-statement-id",
        "value": "101_IN-1_L01FF05"
      } ],
      "partOf": [ {
        "reference": "Procedure/8e5a61d808bb30074e894fc702086b24763c410267b91c86f75de0b3b6507ccf"
      } ],
      "status": "completed",
      "medicationCodeableConcept": {
        "coding": [ {
          "system": "http://fhir.de/CodeSystem/bfarm/atc",
          "code": "L01FF05"
        } ]
      },
      "subject": {
        "reference": "Patient/a02e16474896f1d528cac71f2c9b4c45ac3c9028e3a53fb414a1f7882991ee07"
      },
      "effectivePeriod": {
        "start": "2020-05",
        "end": "2020-10-15"
      }
    },
    "request": {
      "method": "PUT",
      "url": "MedicationStatement/050a031e5a9043c28c565c6b60550c3d34cd059bc2f24c195cdb807f099cd978"
    }
  }, {
    "fullUrl": "CarePlan/de837ddc8136a570462599dd3ebd48b399ac53849e2946f482ba33dfb292ec56",
    "resource": {
      "resourceType": "CarePlan",
      "id": "de837ddc8136a570462599dd3ebd48b399ac53849e2946f482ba33dfb292ec56",
      "meta": {
        "profile": [ "https://www.medizininformatik-initiative.de/fhir/ext/modul-onko/StructureDefinition/mii-pr-onko-tumorkonferenz" ]
      },
      "identifier": [ {
        "system": "https://bzkf.github.io/obds-to-fhir/identifiers/tumorkonferenz-id",
        "value": "Tumorkonferenz_221"
      } ],
      "status": "completed",
      "intent": "plan",
      "category": [ {
        "coding": [ {
          "system": "https://www.medizininformatik-initiative.de/fhir/ext/modul-onko/CodeSystem/mii-cs-onko-therapieplanung-typ",
          "code": "postth"
        } ]
      } ],
      "subject": {
        "reference": "Patient/a02e16474896f1d528cac71f2c9b4c45ac3c9028e3a53fb414a1f7882991ee07"
      },
      "created": "2020-10-20",
      "addresses": [ {
        "reference": "Condition/9896edd80f6833ea17fbb2c5ad5ca42caa1d02f41baea875f4a390be3b372356"
      } ],
      "activity": [ {
        "detail": {
          "code": {
            "coding": [ {
              "system": "https://www.medizininformatik-initiative.de/fhir/ext/modul-onko/CodeSystem/mii-cs-onko-therapie-typ",
              "code": "CH"
            } ]
          },
          "status": "cancelled",
          "statusReason": {
            "coding": [ {
              "system": "https://www.medizininformatik-initiative.de/fhir/ext/modul-onko/CodeSystem/mii-cs-onko-therapieabweichung",
              "code": "J"
            } ]
          }
        }
      } ]
    },
    "request": {
      "method": "PUT",
      "url": "CarePlan/de837ddc8136a570462599dd3ebd48b399ac53849e2946f482ba33dfb292ec56"
    }
  }, {
    "fullUrl": "Observation/c94ca17474b02eea799c245af612201dda49e75fcdbcaf86e73cdb139cb53cf7",
    "resource": {
      "resourceType": "Observation",
      "id": "c94ca17474b02eea799c245af612201dda49e75fcdbcaf86e73cdb139cb53cf7",
      "meta": {
        "profile": [ "https://www.medizininformatik-initiative.de/fhir/ext/modul-onko/StructureDefinition/mii-pr-onko-verlauf" ]
      },
      "identifier": [ {
        "system": "https://bzkf.github.io/obds-to-fhir/identifiers/observation-verlauf-id",
        "value": "341"
      } ],
      "status": "final",
      "code": {
        "coding": [ {
          "system": "http://snomed.info/sct",
          "code": "396432002",
          "display": "Status of regression of tumor (observable entity)"
        } ]
      },
      "subject": {
        "reference": "Patient/a02e16474896f1d528cac71f2c9b4c45ac3c9028e3a53fb414a1f7882991ee07"
      },
      "focus": [ {
        "reference": "Condition/9896edd80f6833ea17fbb2c5ad5ca42caa1d02f41baea875f4a390be3b372356"
      } ],
      "effectiveDateTime": "2021-06-01",
      "valueCodeableConcept": {
        "coding": [ {
          "system": "https://www.medizininformatik-initiative.de/fhir/ext/modul-onko/CodeSystem/mii-cs-onko-verlauf-gesamtbeurteilung",
          "code": "Y",
          "display": "Rezidiv"
        } ]
      },
      "component": [ {
        "code": {
          "coding": [ {
            "system": "http://snomed.info/sct",
            "code": "277062004",
            "display": "Status des Residualtumors"
          } ]
        },
        "valueCodeableConcept": {
          "coding": [ {
            "system": "https://www.medizininformatik-initiative.de/fhir/ext/modul-onko/CodeSystem/mii-cs-onko-verlauf-primaertumor",
            "code": "R",
            "display": "Lokalrezidiv"
          } ]
        }
      }, {
        "code": {
          "coding": [ {
            "system": "http://snomed.info/sct",
            "code": "399656008",
            "display": "Status of tumor metastasis to regional lymph nodes (observable entity)"
          } ]
        },
        "valueCodeableConcept": {
          "coding": [ {
            "system": "https://www.medizininformatik-initiative.de/fhir/ext/modul-onko/CodeSystem/mii-cs-onko-verlauf-lymphknoten",
            "code": "R",
            "display": "neu aufgetretenes Lymphknotenrezidiv"
          } ]
        }
      }, {
        "code": {
          "coding": [ {
            "system": "http://snomed.info/sct",
            "code": "399608002",
            "display": "Status of distant metastasis (observable entity)"
          } ]
        },
        "valueCodeableConcept": {
          "coding": [ {
            "system": "https://www.medizininformatik-initiative.de/fhir/ext/modul-onko/CodeSystem/mii-cs-onko-verlauf-fernmetastasen",
            "code": "R",
            "display": "neu aufgetretene Fernmetastase(n) bzw. Metastasenrezidiv"
          } ]
        }
      } ]
    },
    "request": {
      "method": "PUT",
      "url": "Observation/c94ca17474b02eea799c245af612201dda49e75fcdbcaf86e73cdb139cb53cf7"
    }
  }, {
    "fullUrl": "Observation/ddbc380f1daef8dfac48e0cfea3a6c594bf1354ffdbb7a71eae13ab27e9b39ca",
    "resource": {
      "resourceType": "Observation",
      "id": "ddbc380f1daef8dfac48e0cfea3a6c594bf1354ffdbb7a71eae13ab27e9b39ca",
      "meta": {
        "profile": [ "https://www.medizininformatik-initiative.de/fhir/ext/modul-onko/StructureDefinition/mii-pr-onko-fernmetastasen" ]
      },
      "identifier": [ {
        "system": "https://bzkf.github.io/obds-to-fhir/identifiers/fernmetastasen-id",
        "value": "10_1_VE-1-Verlauf-0"
      } ],
      "status": "final",
      "code": {
        "coding": [ {
          "system": "http://snomed.info/sct",
          "code": "385421009"
        } ]
      },
      "subject": {
        "reference": "Patient/a02e16474896f1d528cac71f2c9b4c45ac3c9028e3a53fb414a1f7882991ee07"
      },
      "focus": [ {
        "reference": "Condition/9896edd80f6833ea17fbb2c5ad5ca42caa1d02f41baea875f4a390be3b372356"
      } ],
      "effectiveDateTime": "2021-06-01",
      "valueCodeableConcept": {
        "coding": [ {
          "system": "https://www.medizininformatik-initiative.de/fhir/ext/modul-onko/CodeSystem/mii-cs-onko-fernmetastasen",
          "code": "BRA"
        } ]
      }
    },
    "request": {
      "method": "PUT",
      "url": "Observation/ddbc380f1daef8dfac48e0cfea3a6c594bf1354ffdbb7a71eae13ab27e9b39ca"
    }
  }, {
    "fullUrl": "Specimen/ad4b122c2df5025505010afee92111e127e89d717e074e5b871d492999909a20",
    "resource": {
      "resourceType": "Specimen",
      "id": "ad4b122c2df5025505010afee92111e127e89d717e074e5b871d492999909a20",
      "meta": {
        "profile": [ "https://www.medizininformatik-initiative.de/fhir/ext/modul-onko/StructureDefinition/mii-pr-onko-specimen" ]
      },
      "identifier": [ {
        "system": "https://bzkf.github.io/obds-to-fhir/identifiers/specimen-id",
        "value": "523"
      } ],
      "accessionIdentifier": {
        "value": "X/654987/1"
      },
      "subject": {
        "reference": "Patient/a02e16474896f1d528cac71f2c9b4c45ac3c9028e3a53fb414a1f7882991ee07"
      },
      "collection": {
        "collectedDateTime": "2021-06-01"
      }
    },
    "request": {
      "method": "PUT",
      "url": "Specimen/ad4b122c2df5025505010afee92111e127e89d717e074e5b871d492999909a20"
    }
  }, {
    "fullUrl": "Observation/aa9d1698a8383e5e4cafb0697c60e2b6797a21a24c5c767c1099a476f887c4c4",
    "resource": {
      "resourceType": "Observation",
      "id": "aa9d1698a8383e5e4cafb0697c60e2b6797a21a24c5c767c1099a476f887c4c4",
      "meta": {
        "profile": [ "https://www.medizininformatik-initiative.de/fhir/ext/modul-onko/StructureDefinition/mii-pr-onko-histologie-icdo3" ]
      },
      "identifier": [ {
        "system": "https://bzkf.github.io/obds-to-fhir/identifiers/observation-histologie-id",
        "value": "523_ICDO3_8010/3"
      } ],
      "status": "final",
      "code": {
        "coding": [ {
          "system": "http://loinc.org",
          "code": "59847-4"
        } ]
      },
      "subject": {
        "reference": "Patient/a02e16474896f1d528cac71f2c9b4c45ac3c9028e3a53fb414a1f7882991ee07"
      },
      "focus": [ {
        "reference": "Condition/9896edd80f6833ea17fbb2c5ad5ca42caa1d02f41baea875f4a390be3b372356"
      } ],
      "effectiveDateTime": "2021-06-01",
      "valueCodeableConcept": {
        "coding": [ {
          "system": "http://terminology.hl7.org/CodeSystem/icd-o-3",
          "version": "33",
          "code": "8010/3"
        } ],
        "text": "Karzinom o.n.A."
      },
      "specimen": {
        "reference": "Specimen/ad4b122c2df5025505010afee92111e127e89d717e074e5b871d492999909a20"
      }
    },
    "request": {
      "method": "PUT",
      "url": "Observation/aa9d1698a8383e5e4cafb0697c60e2b6797a21a24c5c767c1099a476f887c4c4"
    }
  }, {
    "fullUrl": "Observation/cf7637d773022469f13a1ebb0b05832eba1988de223cfc370237ea2f4205713f",
    "resource": {
      "resourceType": "Observation",
      "id": "cf7637d773022469f13a1ebb0b05832eba1988de223cfc370237ea2f4205713f",
      "meta": {
        "profile": [ "https://www.medizininformatik-initiative.de/fhir/ext/modul-onko/StructureDefinition/mii-pr-onko-grading" ]
      },
      "identifier": [ {
        "system": "https://bzkf.github.io/obds-to-fhir/identifiers/grading-observation-id",
        "value": "523_Grading"
      } ],
      "status": "final",
      "category": [ {
        "coding": [ {
          "system": "http://terminology.hl7.org/CodeSystem/observation-category",
          "code": "laboratory"
        } ]
      } ],
      "code": {
        "coding": [ {
          "system": "http://loinc.org",
          "code": "33732-9"
        }, {
          "system": "http://snomed.info/sct",
          "code": "371469007"
        } ]
      },
      "subject": {
        "reference": "Patient/a02e16474896f1d528cac71f2c9b4c45ac3c9028e3a53fb414a1f7882991ee07"
      },
      "focus": [ {
        "reference": "Condition/9896edd80f6833ea17fbb2c5ad5ca42caa1d02f41baea875f4a390be3b372356"
      } ],
      "effectiveDateTime": "2021-06-01",
      "valueCodeableConcept": {
        "coding": [ {
          "system": "https://www.medizininformatik-initiative.de/fhir/ext/modul-onko/CodeSystem/mii-cs-onko-grading",
          "code": "2"
        } ]
      },
      "specimen": {
        "reference": "Specimen/ad4b122c2df5025505010afee92111e127e89d717e074e5b871d492999909a20"
      }
    },
    "request": {
      "method": "PUT",
      "url": "Observation/cf7637d773022469f13a1ebb0b05832eba1988de223cfc370237ea2f4205713f"
    }
  }, {
    "fullUrl": "Observation/858ffdfb167ec08b54503025564dc7c695476c081bbfd2953f8989cee7f7622a",
    "resource": {
      "resourceType": "Observation",
      "id": "858ffdfb167ec08b54503025564dc7c695476c081bbfd2953f8989cee7f7622a",
      "meta": {
        "profile": [ "https://www.medizininformatik-initiative.de/fhir/ext/modul-onko/StructureDefinition/mii-pr-onko-anzahl-befallene-lymphknoten" ]
      },
      "identifier": [ {
        "system": "https://bzkf.github.io/obds-to-fhir/identifiers/observation-histologie-id",
        "value": "523_befallen"
      } ],
      "status": "final",
      "category": [ {
        "coding": [ {
          "system": "http://terminology.hl7.org/CodeSystem/observation-category",
          "code": "laboratory"
        } ]
      } ],
      "code": {
        "coding": [ {
          "system": "http://loinc.org",
          "code": "21893-3"
        }, {
          "system": "http://snomed.info/sct",
          "code": "443527007"
        } ]
      },
      "subject": {
        "reference": "Patient/a02e16474896f1d528cac71f2c9b4c45ac3c9028e3a53fb414a1f7882991ee07"
      },
      "focus": [ {
        "reference": "Condition/9896edd80f6833ea17fbb2c5ad5ca42caa1d02f41baea875f4a390be3b372356"
      } ],
      "effectiveDateTime": "2021-06-01",
      "valueQuantity": {
        "value": 5,
        "unit": "#",
        "system": "http://unitsofmeasure.org",
        "code": "1"
      },
      "specimen": {
        "reference": "Specimen/ad4b122c2df5025505010afee92111e127e89d717e074e5b871d492999909a20"
      }
    },
    "request": {
      "method": "PUT",
      "url": "Observation/858ffdfb167ec08b54503025564dc7c695476c081bbfd2953f8989cee7f7622a"
    }
  }, {
    "fullUrl": "Observation/f9fb8adb157ee314ebb3abbfe80ba1174764e70c54fec8cdd79c1c5897605f48",
    "resource": {
      "resourceType": "Observation",
      "id": "f9fb8adb157ee314ebb3abbfe80ba1174764e70c54fec8cdd79c1c5897605f48",
      "meta": {
        "profile": [ "https://www.medizininformatik-initiative.de/fhir/ext/modul-onko/StructureDefinition/mii-pr-onko-anzahl-untersuchte-lymphknoten" ]
      },
      "identifier": [ {
        "system": "https://bzkf.github.io/obds-to-fhir/identifiers/observation-histologie-id",
        "value": "523_untersucht"
      } ],
      "status": "final",
      "category": [ {
        "coding": [ {
          "system": "http://terminology.hl7.org/CodeSystem/observation-category",
          "code": "laboratory"
        } ]
      } ],
      "code": {
        "coding": [ {
          "system": "http://loinc.org",
          "code": "21894-1"
        }, {
          "system": "http://snomed.info/sct",
          "code": "444025001"
        } ]
      },
      "subject": {
        "reference": "Patient/a02e16474896f1d528cac71f2c9b4c45ac3c9028e3a53fb414a1f7882991ee07"
      },
      "focus": [ {
        "reference": "Condition/9896edd80f6833ea17fbb2c5ad5ca42caa1d02f41baea875f4a390be3b372356"
      } ],
      "effectiveDateTime": "2021-06-01",
      "valueQuantity": {
        "value": 5,
        "unit": "#",
        "system": "http://unitsofmeasure.org",
        "code": "1"
      },
      "specimen": {
        "reference": "Specimen/ad4b122c2df5025505010afee92111e127e89d717e074e5b871d492999909a20"
      }
    },
    "request": {
      "method": "PUT",
      "url": "Observation/f9fb8adb157ee314ebb3abbfe80ba1174764e70c54fec8cdd79c1c5897605f48"
    }
  }, {
    "fullUrl": "Observation/3c7a32d931b0826c46b0aadcfecfc638f841c2903416fb4a5e651956ac95ffdf",
    "resource": {
      "resourceType": "Observation",
      "id": "3c7a32d931b0826c46b0aadcfecfc638f841c2903416fb4a5e651956ac95ffdf",
      "meta": {
        "profile": [ "https://www.medizininformatik-initiative.de/fhir/ext/modul-onko/StructureDefinition/mii-pr-onko-anzahl-befallene-sentinel-lymphknoten" ]
      },
      "identifier": [ {
        "system": "https://bzkf.github.io/obds-to-fhir/identifiers/observation-histologie-id",
        "value": "523_befallen_sentinel"
      } ],
      "status": "final",
      "category": [ {
        "coding": [ {
          "system": "http://terminology.hl7.org/CodeSystem/observation-category",
          "code": "laboratory"
        } ]
      } ],
      "code": {
        "coding": [ {
          "system": "http://loinc.org",
          "code": "92832-5"
        }, {
          "system": "http://snomed.info/sct",
          "code": "1264491009"
        } ]
      },
      "subject": {
        "reference": "Patient/a02e16474896f1d528cac71f2c9b4c45ac3c9028e3a53fb414a1f7882991ee07"
      },
      "focus": [ {
        "reference": "Condition/9896edd80f6833ea17fbb2c5ad5ca42caa1d02f41baea875f4a390be3b372356"
      } ],
      "effectiveDateTime": "2021-06-01",
      "valueQuantity": {
        "value": 1,
        "unit": "#",
        "system": "http://unitsofmeasure.org",
        "code": "1"
      },
      "specimen": {
        "reference": "Specimen/ad4b122c2df5025505010afee92111e127e89d717e074e5b871d492999909a20"
      }
    },
    "request": {
      "method": "PUT",
      "url": "Observation/3c7a32d931b0826c46b0aadcfecfc638f841c2903416fb4a5e651956ac95ffdf"
    }
  }, {
    "fullUrl": "Observation/d0bcfa8a23b41c9f12b0ec2265a0bdc80ea7c3c6b81622b30d28ede5d9043f3c",
    "resource": {
      "resourceType": "Observation",
      "id": "d0bcfa8a23b41c9f12b0ec2265a0bdc80ea7c3c6b81622b30d28ede5d9043f3c",
      "meta": {
        "profile": [ "https://www.medizininformatik-initiative.de/fhir/ext/modul-onko/StructureDefinition/mii-pr-onko-anzahl-untersuchte-sentinel-lymphknoten" ]
      },
      "identifier": [ {
        "system": "https://bzkf.github.io/obds-to-fhir/identifiers/observation-histologie-id",
        "value": "523_untersucht_sentinel"
      } ],
      "status": "final",
      "category": [ {
        "coding": [ {
          "system": "http://terminology.hl7.org/CodeSystem/observation-category",
          "code": "laboratory"
        } ]
      } ],
      "code": {
        "coding": [ {
          "system": "http://loinc.org",
          "code": "85347-3"
        }, {
          "system": "http://snomed.info/sct",
          "code": "444411008"
        } ]
      },
      "subject": {
        "reference": "Patient/a02e16474896f1d528cac71f2c9b4c45ac3c9028e3a53fb414a1f7882991ee07"
      },
      "focus": [ {
        "reference": "Condition/9896edd80f6833ea17fbb2c5ad5ca42caa1d02f41baea875f4a390be3b372356"
      } ],
      "effectiveDateTime": "2021-06-01",
      "valueQuantity": {
        "value": 1,
        "unit": "#",
        "system": "http://unitsofmeasure.org",
        "code": "1"
      },
      "specimen": {
        "reference": "Specimen/ad4b122c2df5025505010afee92111e127e89d717e074e5b871d492999909a20"
      }
    },
    "request": {
      "method": "PUT",
      "url": "Observation/d0bcfa8a23b41c9f12b0ec2265a0bdc80ea7c3c6b81622b30d28ede5d9043f3c"
    }
  }, {
    "fullUrl": "Observation/c2b66e38ce481e6162bba6a98bb9be630b0a27f1d5c20c9f7254fca1e20bb75e",
    "resource": {
      "resourceType": "Observation",
      "id": "c2b66e38ce481e6162bba6a98bb9be630b0a27f1d5c20c9f7254fca1e20bb75e",
      "meta": {
        "profile": [ "https://www.medizininformatik-initiative.de/fhir/ext/modul-onko/StructureDefinition/mii-pr-onko-genetische-variante" ]
      },
      "identifier": [ {
        "system": "https://bzkf.github.io/obds-to-fhir/identifiers/genetische-variante-id",
        "value": "GenetischeAusprägung-Verlauf10_1_VE-1W0"
      } ],
      "status": "final",
      "category": [ {
        "coding": [ {
          "system": "http://terminology.hl7.org/CodeSystem/observation-category",
          "code": "laboratory"
        } ]
      } ],
      "code": {
        "coding": [ {
          "system": "http://loinc.org",
          "code": "69548-6"
        } ]
      },
      "subject": {
        "reference": "Patient/a02e16474896f1d528cac71f2c9b4c45ac3c9028e3a53fb414a1f7882991ee07"
      },
      "focus": [ {
        "reference": "Condition/9896edd80f6833ea17fbb2c5ad5ca42caa1d02f41baea875f4a390be3b372356"
      } ],
      "effectiveDateTime": "2021-06-01",
      "interpretation": [ {
        "coding": [ {
          "system": "https://www.medizininformatik-initiative.de/fhir/ext/modul-onko/CodeSystem/mii-cs-onko-genetische-variante-auspraegung",
          "code": "W"
        } ]
      } ],
      "note": [ {
        "text": "BLUB"
      } ]
    },
    "request": {
      "method": "PUT",
      "url": "Observation/c2b66e38ce481e6162bba6a98bb9be630b0a27f1d5c20c9f7254fca1e20bb75e"
    }
  }, {
    "fullUrl": "Observation/f6e4263bbf47d91ae771930e83e3ecf706038f631708f19c42b7a5aa43bf27e2",
    "resource": {
      "resourceType": "Observation",
      "id": "f6e4263bbf47d91ae771930e83e3ecf706038f631708f19c42b7a5aa43bf27e2",
      "meta": {
        "profile": [ "https://www.medizininformatik-initiative.de/fhir/ext/modul-onko/StructureDefinition/mii-pr-onko-tnm-t-kategorie" ]
      },
      "identifier": [ {
        "system": "484_T",
        "value": "https://bzkf.github.io/obds-to-fhir/identifiers/tnm-t-kategorie-observation-id"
      } ],
      "status": "final",
      "code": {
        "extension": [ {
          "url": "https://www.medizininformatik-initiative.de/fhir/ext/modul-onko/StructureDefinition/mii-ex-onko-tnm-cp-praefix",
          "valueCodeableConcept": {
            "coding": [ {
              "system": "https://www.uicc.org/resources/tnm",
              "code": "p"
            } ]
          }
        } ],
        "coding": [ {
          "system": "http://snomed.info/sct",
          "code": "384625004",
          "display": "pT category (observable entity)"
        } ]
      },
      "subject": {
        "reference": "Patient/a02e16474896f1d528cac71f2c9b4c45ac3c9028e3a53fb414a1f7882991ee07"
      },
      "focus": [ {
        "reference": "Condition/9896edd80f6833ea17fbb2c5ad5ca42caa1d02f41baea875f4a390be3b372356"
      } ],
      "effectiveDateTime": "2021-06-01",
      "valueCodeableConcept": {
        "coding": [ {
          "system": "https://www.uicc.org/resources/tnm",
          "code": "3"
        } ]
      },
      "method": {
        "coding": [ {
          "system": "https://www.medizininformatik-initiative.de/fhir/ext/modul-onko/CodeSystem/mii-cs-onko-tnm-version",
          "code": "8"
        } ]
      }
    },
    "request": {
      "method": "PUT",
      "url": "Observation/f6e4263bbf47d91ae771930e83e3ecf706038f631708f19c42b7a5aa43bf27e2"
    }
  }, {
    "fullUrl": "Observation/18214e56826bb7ac64c90c1d16183f364888750ad4645ced640ec98fdeaf9542",
    "resource": {
      "resourceType": "Observation",
      "id": "18214e56826bb7ac64c90c1d16183f364888750ad4645ced640ec98fdeaf9542",
      "meta": {
        "profile": [ "https://www.medizininformatik-initiative.de/fhir/ext/modul-onko/StructureDefinition/mii-pr-onko-tnm-n-kategorie" ]
      },
      "identifier": [ {
        "system": "484_N",
        "value": "https://bzkf.github.io/obds-to-fhir/identifiers/tnm-n-kategorie-observation-id"
      } ],
      "status": "final",
      "code": {
        "extension": [ {
          "url": "https://www.medizininformatik-initiative.de/fhir/ext/modul-onko/StructureDefinition/mii-ex-onko-tnm-cp-praefix",
          "valueCodeableConcept": {
            "coding": [ {
              "system": "https://www.uicc.org/resources/tnm",
              "code": "p"
            } ]
          }
        } ],
        "coding": [ {
          "system": "http://snomed.info/sct",
          "code": "371494008",
          "display": "pN category (observable entity)"
        } ]
      },
      "subject": {
        "reference": "Patient/a02e16474896f1d528cac71f2c9b4c45ac3c9028e3a53fb414a1f7882991ee07"
      },
      "focus": [ {
        "reference": "Condition/9896edd80f6833ea17fbb2c5ad5ca42caa1d02f41baea875f4a390be3b372356"
      } ],
      "effectiveDateTime": "2021-06-01",
      "valueCodeableConcept": {
        "coding": [ {
          "system": "https://www.uicc.org/resources/tnm",
          "code": "3"
        } ]
      },
      "method": {
        "coding": [ {
          "system": "https://www.medizininformatik-initiative.de/fhir/ext/modul-onko/CodeSystem/mii-cs-onko-tnm-version",
          "code": "8"
        } ]
      }
    },
    "request": {
      "method": "PUT",
      "url": "Observation/18214e56826bb7ac64c90c1d16183f364888750ad4645ced640ec98fdeaf9542"
    }
  }, {
    "fullUrl": "Observation/e74365c15da8180218957604e48aac83a1278d454bd8d491108d8a511c3e90aa",
    "resource": {
      "resourceType": "Observation",
      "id": "e74365c15da8180218957604e48aac83a1278d454bd8d491108d8a511c3e90aa",
      "meta": {
        "profile": [ "https://www.medizininformatik-initiative.de/fhir/ext/modul-onko/StructureDefinition/mii-pr-onko-tnm-m-kategorie" ]
      },
      "identifier": [ {
        "system": "484_M",
        "value": "https://bzkf.github.io/obds-to-fhir/identifiers/tnm-m-kategorie-observation-id"
      } ],
      "status": "final",
      "code": {
        "extension": [ {
          "url": "https://www.medizininformatik-initiative.de/fhir/ext/modul-onko/StructureDefinition/mii-ex-onko-tnm-cp-praefix",
          "valueCodeableConcept": {
            "coding": [ {
              "system": "https://www.uicc.org/resources/tnm",
              "code": "p"
            } ]
          }
        } ],
        "coding": [ {
          "system": "http://snomed.info/sct",
          "code": "371497001",
          "display": "pM category (observable entity)"
        } ]
      },
      "subject": {
        "reference": "Patient/a02e16474896f1d528cac71f2c9b4c45ac3c9028e3a53fb414a1f7882991ee07"
      },
      "focus": [ {
        "reference": "Condition/9896edd80f6833ea17fbb2c5ad5ca42caa1d02f41baea875f4a390be3b372356"
      } ],
      "effectiveDateTime": "2021-06-01",
      "valueCodeableConcept": {
        "coding": [ {
          "system": "https://www.uicc.org/resources/tnm",
          "code": "1"
        } ]
      },
      "method": {
        "coding": [ {
          "system": "https://www.medizininformatik-initiative.de/fhir/ext/modul-onko/CodeSystem/mii-cs-onko-tnm-version",
          "code": "8"
        } ]
      }
    },
    "request": {
      "method": "PUT",
      "url": "Observation/e74365c15da8180218957604e48aac83a1278d454bd8d491108d8a511c3e90aa"
    }
  }, {
    "fullUrl": "Observation/aa3c45d537129ff86d9664f9764c20cf0ac249d7cb7fd678544dc62660ddad8e",
    "resource": {
      "resourceType": "Observation",
      "id": "aa3c45d537129ff86d9664f9764c20cf0ac249d7cb7fd678544dc62660ddad8e",
      "meta": {
        "profile": [ "https://www.medizininformatik-initiative.de/fhir/ext/modul-onko/StructureDefinition/mii-pr-onko-tnm-l-kategorie" ]
      },
      "identifier": [ {
        "system": "484_L",
        "value": "https://bzkf.github.io/obds-to-fhir/identifiers/tnm-l-kategorie-observation-id"
      } ],
      "status": "final",
      "code": {
        "coding": [ {
          "system": "http://snomed.info/sct",
          "code": "395715009"
        } ]
      },
      "subject": {
        "reference": "Patient/a02e16474896f1d528cac71f2c9b4c45ac3c9028e3a53fb414a1f7882991ee07"
      },
      "focus": [ {
        "reference": "Condition/9896edd80f6833ea17fbb2c5ad5ca42caa1d02f41baea875f4a390be3b372356"
      } ],
      "effectiveDateTime": "2021-06-01",
      "valueCodeableConcept": {
        "coding": [ {
          "system": "https://www.uicc.org/resources/tnm",
          "code": "L1"
        } ]
      },
      "method": {
        "coding": [ {
          "system": "https://www.medizininformatik-initiative.de/fhir/ext/modul-onko/CodeSystem/mii-cs-onko-tnm-version",
          "code": "8"
        } ]
      }
    },
    "request": {
      "method": "PUT",
      "url": "Observation/aa3c45d537129ff86d9664f9764c20cf0ac249d7cb7fd678544dc62660ddad8e"
    }
  }, {
    "fullUrl": "Observation/7cfc9db76a4fa027be44edc89be4943b84c67c2334c50e4685993f7e6faac276",
    "resource": {
      "resourceType": "Observation",
      "id": "7cfc9db76a4fa027be44edc89be4943b84c67c2334c50e4685993f7e6faac276",
      "meta": {
        "profile": [ "\thttps://www.medizininformatik-initiative.de/fhir/ext/modul-onko/StructureDefinition/mii-pr-onko-tnm-pn-kategorie" ]
      },
      "identifier": [ {
        "system": "484_Pn",
        "value": "https://bzkf.github.io/obds-to-fhir/identifiers/tnm-pn-kategorie-observation-id"
      } ],
      "status": "final",
      "code": {
        "coding": [ {
          "system": "http://snomed.info/sct",
          "code": "371513001"
        } ]
      },
      "subject": {
        "reference": "Patient/a02e16474896f1d528cac71f2c9b4c45ac3c9028e3a53fb414a1f7882991ee07"
      },
      "focus": [ {
        "reference": "Condition/9896edd80f6833ea17fbb2c5ad5ca42caa1d02f41baea875f4a390be3b372356"
      } ],
      "effectiveDateTime": "2021-06-01",
      "valueCodeableConcept": {
        "coding": [ {
          "system": "https://www.uicc.org/resources/tnm",
          "code": "Pn1"
        } ]
      },
      "method": {
        "coding": [ {
          "system": "https://www.medizininformatik-initiative.de/fhir/ext/modul-onko/CodeSystem/mii-cs-onko-tnm-version",
          "code": "8"
        } ]
      }
    },
    "request": {
      "method": "PUT",
      "url": "Observation/7cfc9db76a4fa027be44edc89be4943b84c67c2334c50e4685993f7e6faac276"
    }
  }, {
    "fullUrl": "Observation/15e9737016346052cf1d0ff778fd4a10dcb0397f1d1a14a92112e07025a1659e",
    "resource": {
      "resourceType": "Observation",
      "id": "15e9737016346052cf1d0ff778fd4a10dcb0397f1d1a14a92112e07025a1659e",
      "meta": {
        "profile": [ "https://www.medizininformatik-initiative.de/fhir/ext/modul-onko/StructureDefinition/mii-pr-onko-tnm-r-symbol" ]
      },
      "identifier": [ {
        "system": "484_r",
        "value": "https://bzkf.github.io/obds-to-fhir/identifiers/tnm-r-symbol-observation-id"
      } ],
      "status": "final",
      "code": {
        "coding": [ {
          "system": "http://loinc.org",
          "code": "101659-1"
        } ]
      },
      "subject": {
        "reference": "Patient/a02e16474896f1d528cac71f2c9b4c45ac3c9028e3a53fb414a1f7882991ee07"
      },
      "focus": [ {
        "reference": "Condition/9896edd80f6833ea17fbb2c5ad5ca42caa1d02f41baea875f4a390be3b372356"
      } ],
      "effectiveDateTime": "2021-06-01",
      "valueCodeableConcept": {
        "coding": [ {
          "system": "http://snomed.info/sct",
          "code": "421188008"
        } ]
      },
      "method": {
        "coding": [ {
          "system": "https://www.medizininformatik-initiative.de/fhir/ext/modul-onko/CodeSystem/mii-cs-onko-tnm-version",
          "code": "8"
        } ]
      }
    },
    "request": {
      "method": "PUT",
      "url": "Observation/15e9737016346052cf1d0ff778fd4a10dcb0397f1d1a14a92112e07025a1659e"
    }
  }, {
    "fullUrl": "Observation/6296fd206eddd07af923793bd8ecdb69f426b0db9c7f7a5fde684ea925058d85",
    "resource": {
      "resourceType": "Observation",
      "id": "6296fd206eddd07af923793bd8ecdb69f426b0db9c7f7a5fde684ea925058d85",
      "meta": {
        "profile": [ "https://www.medizininformatik-initiative.de/fhir/ext/modul-onko/StructureDefinition/mii-pr-onko-tnm-v-kategorie" ]
      },
      "identifier": [ {
        "system": "484_V",
        "value": "https://bzkf.github.io/obds-to-fhir/identifiers/tnm-v-kategorie-observation-id"
      } ],
      "status": "final",
      "code": {
        "coding": [ {
          "system": "http://snomed.info/sct",
          "code": "371493002"
        } ]
      },
      "subject": {
        "reference": "Patient/a02e16474896f1d528cac71f2c9b4c45ac3c9028e3a53fb414a1f7882991ee07"
      },
      "focus": [ {
        "reference": "Condition/9896edd80f6833ea17fbb2c5ad5ca42caa1d02f41baea875f4a390be3b372356"
      } ],
      "effectiveDateTime": "2021-06-01",
      "valueCodeableConcept": {
        "coding": [ {
          "system": "https://www.uicc.org/resources/tnm",
          "code": "V2"
        } ]
      },
      "method": {
        "coding": [ {
          "system": "https://www.medizininformatik-initiative.de/fhir/ext/modul-onko/CodeSystem/mii-cs-onko-tnm-version",
          "code": "8"
        } ]
      }
    },
    "request": {
      "method": "PUT",
      "url": "Observation/6296fd206eddd07af923793bd8ecdb69f426b0db9c7f7a5fde684ea925058d85"
    }
  }, {
    "fullUrl": "Observation/f85b82a87a4e42b6d9d73d33e2f14f5f3d1025d81311d491a3ca2a4c0f5d25e5",
    "resource": {
      "resourceType": "Observation",
      "id": "f85b82a87a4e42b6d9d73d33e2f14f5f3d1025d81311d491a3ca2a4c0f5d25e5",
      "meta": {
        "profile": [ "https://www.medizininformatik-initiative.de/fhir/ext/modul-onko/StructureDefinition/mii-pr-onko-tnm-klassifikation" ]
      },
      "identifier": [ {
        "system": "https://bzkf.github.io/obds-to-fhir/identifiers/tnm-grouping-observation-id",
        "value": "484"
      } ],
      "status": "final",
      "code": {
        "coding": [ {
          "system": "http://snomed.info/sct",
          "code": "399588009",
          "display": "TNM stage grouping"
        } ]
      },
      "subject": {
        "reference": "Patient/a02e16474896f1d528cac71f2c9b4c45ac3c9028e3a53fb414a1f7882991ee07"
      },
      "focus": [ {
        "reference": "Condition/9896edd80f6833ea17fbb2c5ad5ca42caa1d02f41baea875f4a390be3b372356"
      } ],
      "effectiveDateTime": "2021-06-01",
      "valueCodeableConcept": {
        "coding": [ {
          "system": "https://www.uicc.org/resources/tnm",
          "code": "IIIA",
          "display": "Stadium IIIA"
        } ]
      },
      "method": {
        "coding": [ {
          "system": "https://www.medizininformatik-initiative.de/fhir/ext/modul-onko/CodeSystem/mii-cs-onko-tnm-version",
          "code": "8"
        } ]
      },
      "hasMember": [ {
        "reference": "Observation/f6e4263bbf47d91ae771930e83e3ecf706038f631708f19c42b7a5aa43bf27e2"
      }, {
        "reference": "Observation/18214e56826bb7ac64c90c1d16183f364888750ad4645ced640ec98fdeaf9542"
      }, {
        "reference": "Observation/e74365c15da8180218957604e48aac83a1278d454bd8d491108d8a511c3e90aa"
      }, {
        "reference": "Observation/aa3c45d537129ff86d9664f9764c20cf0ac249d7cb7fd678544dc62660ddad8e"
      }, {
        "reference": "Observation/7cfc9db76a4fa027be44edc89be4943b84c67c2334c50e4685993f7e6faac276"
      }, {
        "reference": "Observation/15e9737016346052cf1d0ff778fd4a10dcb0397f1d1a14a92112e07025a1659e"
      }, {
        "reference": "Observation/6296fd206eddd07af923793bd8ecdb69f426b0db9c7f7a5fde684ea925058d85"
      } ]
    },
    "request": {
      "method": "PUT",
      "url": "Observation/f85b82a87a4e42b6d9d73d33e2f14f5f3d1025d81311d491a3ca2a4c0f5d25e5"
    }
  }, {
    "fullUrl": "Observation/819f7208b884155dc6722e070d39a269ff47c1ac0a37e5fd96b84c9cbbbbea1c",
    "resource": {
      "resourceType": "Observation",
      "id": "819f7208b884155dc6722e070d39a269ff47c1ac0a37e5fd96b84c9cbbbbea1c",
      "meta": {
        "profile": [ "https://www.medizininformatik-initiative.de/fhir/ext/modul-onko/StructureDefinition/mii-pr-onko-verlauf" ]
      },
      "identifier": [ {
        "system": "https://bzkf.github.io/obds-to-fhir/identifiers/observation-verlauf-id",
        "value": "342"
      } ],
      "status": "final",
      "code": {
        "coding": [ {
          "system": "http://snomed.info/sct",
          "code": "396432002",
          "display": "Status of regression of tumor (observable entity)"
        } ]
      },
      "subject": {
        "reference": "Patient/a02e16474896f1d528cac71f2c9b4c45ac3c9028e3a53fb414a1f7882991ee07"
      },
      "focus": [ {
        "reference": "Condition/9896edd80f6833ea17fbb2c5ad5ca42caa1d02f41baea875f4a390be3b372356"
      } ],
      "effectiveDateTime": "2021-12-02",
      "valueCodeableConcept": {
        "coding": [ {
          "system": "https://www.medizininformatik-initiative.de/fhir/ext/modul-onko/CodeSystem/mii-cs-onko-verlauf-gesamtbeurteilung",
          "code": "K",
          "display": "keine Änderung"
        } ]
      },
      "component": [ {
        "code": {
          "coding": [ {
            "system": "http://snomed.info/sct",
            "code": "277062004",
            "display": "Status des Residualtumors"
          } ]
        },
        "valueCodeableConcept": {
          "coding": [ {
            "system": "https://www.medizininformatik-initiative.de/fhir/ext/modul-onko/CodeSystem/mii-cs-onko-verlauf-primaertumor",
            "code": "N",
            "display": "Tumorreste (Residualtumor) No Change"
          } ]
        }
      }, {
        "code": {
          "coding": [ {
            "system": "http://snomed.info/sct",
            "code": "399656008",
            "display": "Status of tumor metastasis to regional lymph nodes (observable entity)"
          } ]
        },
        "valueCodeableConcept": {
          "coding": [ {
            "system": "https://www.medizininformatik-initiative.de/fhir/ext/modul-onko/CodeSystem/mii-cs-onko-verlauf-lymphknoten",
            "code": "N",
            "display": "bekannter Lymphknotenbefall No Change"
          } ]
        }
      }, {
        "code": {
          "coding": [ {
            "system": "http://snomed.info/sct",
            "code": "399608002",
            "display": "Status of distant metastasis (observable entity)"
          } ]
        },
        "valueCodeableConcept": {
          "coding": [ {
            "system": "https://www.medizininformatik-initiative.de/fhir/ext/modul-onko/CodeSystem/mii-cs-onko-verlauf-fernmetastasen",
            "code": "X",
            "display": "fehlende Angabe"
          } ]
        }
      } ]
    },
    "request": {
      "method": "PUT",
      "url": "Observation/819f7208b884155dc6722e070d39a269ff47c1ac0a37e5fd96b84c9cbbbbea1c"
    }
  }, {
    "fullUrl": "Observation/cbc4593c9af41236a6be7702dc0d63747819059028e1f7a9ee46384a368045eb",
    "resource": {
      "resourceType": "Observation",
      "id": "cbc4593c9af41236a6be7702dc0d63747819059028e1f7a9ee46384a368045eb",
      "meta": {
        "profile": [ "https://www.medizininformatik-initiative.de/fhir/ext/modul-onko/StructureDefinition/mii-pr-onko-tod" ]
      },
      "identifier": [ {
        "system": "https://bzkf.github.io/obds-to-fhir/identifiers/tod-observation-id",
        "value": "161_C50.9"
      } ],
      "status": "final",
      "code": {
        "coding": [ {
          "system": "http://snomed.info/sct",
          "code": "184305005"
        } ]
      },
      "subject": {
        "reference": "Patient/a02e16474896f1d528cac71f2c9b4c45ac3c9028e3a53fb414a1f7882991ee07"
      },
      "focus": [ {
        "reference": "Condition/9896edd80f6833ea17fbb2c5ad5ca42caa1d02f41baea875f4a390be3b372356"
      } ],
      "effectiveDateTime": "2022-08-01",
      "valueCodeableConcept": {
        "coding": [ {
          "system": "http://fhir.de/CodeSystem/bfarm/icd-10-gm",
          "version": "2020",
          "code": "C50.9"
        } ]
      },
      "interpretation": [ {
        "coding": [ {
          "system": "https://www.medizininformatik-initiative.de/fhir/ext/modul-onko/CodeSystem/mii-cs-onko-tod",
          "code": "J"
        } ]
      } ]
    },
    "request": {
      "method": "PUT",
      "url": "Observation/cbc4593c9af41236a6be7702dc0d63747819059028e1f7a9ee46384a368045eb"
    }
  }, {
    "fullUrl": "Observation/8170fbf5aebdce7c20b3f7c634b1367c621664782d28d4c57593e4d8d048c8cd",
    "resource": {
      "resourceType": "Observation",
      "id": "8170fbf5aebdce7c20b3f7c634b1367c621664782d28d4c57593e4d8d048c8cd",
      "meta": {
        "profile": [ "https://www.medizininformatik-initiative.de/fhir/ext/modul-onko/StructureDefinition/mii-pr-onko-tod" ]
      },
      "identifier": [ {
        "system": "https://bzkf.github.io/obds-to-fhir/identifiers/tod-observation-id",
        "value": "161_T57.3"
      } ],
      "status": "final",
      "code": {
        "coding": [ {
          "system": "http://snomed.info/sct",
          "code": "184305005"
        } ]
      },
      "subject": {
        "reference": "Patient/a02e16474896f1d528cac71f2c9b4c45ac3c9028e3a53fb414a1f7882991ee07"
      },
      "focus": [ {
        "reference": "Condition/9896edd80f6833ea17fbb2c5ad5ca42caa1d02f41baea875f4a390be3b372356"
      } ],
      "effectiveDateTime": "2022-08-01",
      "valueCodeableConcept": {
        "coding": [ {
          "system": "http://fhir.de/CodeSystem/bfarm/icd-10-gm",
          "version": "2020",
          "code": "T57.3"
        } ]
      },
      "interpretation": [ {
        "coding": [ {
          "system": "https://www.medizininformatik-initiative.de/fhir/ext/modul-onko/CodeSystem/mii-cs-onko-tod",
          "code": "J"
        } ]
      } ]
    },
    "request": {
      "method": "PUT",
      "url": "Observation/8170fbf5aebdce7c20b3f7c634b1367c621664782d28d4c57593e4d8d048c8cd"
    }
  }, {
    "fullUrl": "Condition/5236d8328066567b90c671091d739dc044ae00f4f9e73a5d1e6c81ed9049f335",
    "resource": {
      "resourceType": "Condition",
      "id": "5236d8328066567b90c671091d739dc044ae00f4f9e73a5d1e6c81ed9049f335",
      "meta": {
        "profile": [ "https://www.medizininformatik-initiative.de/fhir/ext/modul-onko/StructureDefinition/mii-pr-onko-diagnose-primaertumor" ]
      },
      "extension": [ {
        "url": "https://www.medizininformatik-initiative.de/fhir/ext/modul-onko/StructureDefinition/mii-ex-onko-histology-morphology-behavior-icdo3",
        "valueCodeableConcept": {
          "coding": [ {
            "system": "http://terminology.hl7.org/CodeSystem/icd-o-3",
            "version": "33",
            "code": "8010/3"
          } ]
        }
      }, {
        "url": "http://hl7.org/fhir/StructureDefinition/condition-assertedDate",
        "valueDateTime": "2020-01-01"
      } ],
      "identifier": [ {
        "system": "https://bzkf.github.io/obds-to-fhir/identifiers/primaerdiagnose-id",
        "value": "102"
      } ],
      "verificationStatus": {
        "coding": [ {
          "system": "http://terminology.hl7.org/CodeSystem/condition-ver-status",
          "code": "confirmed"
        }, {
          "system": "https://www.medizininformatik-initiative.de/fhir/ext/modul-onko/CodeSystem/mii-cs-onko-primaertumor-diagnosesicherung",
          "code": "7"
        } ]
      },
      "code": {
        "coding": [ {
          "system": "http://fhir.de/CodeSystem/bfarm/icd-10-gm",
          "version": "2020",
          "code": "C20"
        } ]
      },
      "bodySite": [ {
        "coding": [ {
          "system": "http://terminology.hl7.org/CodeSystem/icd-o-3",
          "version": "33",
          "code": "C20.9"
        } ]
      }, {
        "coding": [ {
          "system": "https://www.medizininformatik-initiative.de/fhir/ext/modul-onko/CodeSystem/mii-cs-onko-seitenlokalisation",
          "code": "T"
        } ]
      } ],
      "subject": {
        "reference": "Patient/a02e16474896f1d528cac71f2c9b4c45ac3c9028e3a53fb414a1f7882991ee07"
      },
      "recordedDate": "2024-09-19"
    },
    "request": {
      "method": "PUT",
      "url": "Condition/5236d8328066567b90c671091d739dc044ae00f4f9e73a5d1e6c81ed9049f335"
    }
  }, {
    "fullUrl": "Observation/7d6cfaae048e593bc9538124062743dc6c1fd2c433854ace4a41fed8a2d5b9a8",
    "resource": {
      "resourceType": "Observation",
      "id": "7d6cfaae048e593bc9538124062743dc6c1fd2c433854ace4a41fed8a2d5b9a8",
      "meta": {
        "profile": [ "https://www.medizininformatik-initiative.de/fhir/ext/modul-onko/StructureDefinition/mii-pr-onko-allgemeiner-leistungszustand-ecog" ]
      },
      "identifier": [ {
        "system": "https://bzkf.github.io/obds-to-fhir/identifiers/allgemeiner-leistungszustand-ecog-id",
        "value": "ECOG-10_2_DI_1"
      } ],
      "status": "final",
      "code": {
        "coding": [ {
          "system": "http://snomed.info/sct",
          "code": "423740007"
        } ]
      },
      "subject": {
        "reference": "Patient/a02e16474896f1d528cac71f2c9b4c45ac3c9028e3a53fb414a1f7882991ee07"
      },
      "focus": [ {
        "reference": "Condition/5236d8328066567b90c671091d739dc044ae00f4f9e73a5d1e6c81ed9049f335"
      } ],
      "effectiveDateTime": "2020-01-01",
      "valueCodeableConcept": {
        "coding": [ {
          "system": "https://www.medizininformatik-initiative.de/fhir/ext/modul-onko/CodeSystem/mii-cs-onko-allgemeiner-leistungszustand-ecog",
          "code": "0",
          "display": "Normale, uneingeschränkte Aktivität wie vor der Erkrankung (90 - 100 % nach Karnofsky)"
        } ]
      }
    },
    "request": {
      "method": "PUT",
      "url": "Observation/7d6cfaae048e593bc9538124062743dc6c1fd2c433854ace4a41fed8a2d5b9a8"
    }
  }, {
    "fullUrl": "Procedure/ed5b745ca4c7e7fbc6c581157a677b46028f7fbea03623571edd2440d993b760",
    "resource": {
      "resourceType": "Procedure",
      "id": "ed5b745ca4c7e7fbc6c581157a677b46028f7fbea03623571edd2440d993b760",
      "meta": {
        "profile": [ "https://www.medizininformatik-initiative.de/fhir/ext/modul-onko/StructureDefinition/mii-pr-onko-operation" ]
      },
      "extension": [ {
        "url": "https://www.medizininformatik-initiative.de/fhir/ext/modul-onko/StructureDefinition/mii-ex-onko-operation-intention",
        "valueCodeableConcept": {
          "coding": [ {
            "system": "https://www.medizininformatik-initiative.de/fhir/ext/modul-onko/CodeSystem/mii-cs-onko-intention",
            "code": "K"
          } ]
        }
      } ],
      "identifier": [ {
        "system": "https://bzkf.github.io/obds-to-fhir/identifiers/operation-procedure-id",
        "value": "3025-484.55"
      } ],
      "status": "completed",
      "category": {
        "coding": [ {
          "system": "http://snomed.info/sct",
          "code": "387713003",
          "display": "Surgical procedure"
        } ]
      },
      "code": {
        "coding": [ {
          "system": "http://fhir.de/CodeSystem/bfarm/ops",
          "version": "2020",
          "code": "5-484.55"
        } ]
      },
      "subject": {
        "reference": "Patient/a02e16474896f1d528cac71f2c9b4c45ac3c9028e3a53fb414a1f7882991ee07"
      },
      "performedDateTime": "2020-02-01",
      "reasonReference": [ {
        "reference": "Condition/5236d8328066567b90c671091d739dc044ae00f4f9e73a5d1e6c81ed9049f335"
      } ],
      "outcome": {
        "coding": [ {
          "system": "https://www.medizininformatik-initiative.de/fhir/ext/modul-onko/CodeSystem/mii-cs-onko-residualstatus",
          "code": "R0"
        } ]
      }
    },
    "request": {
      "method": "PUT",
      "url": "Procedure/ed5b745ca4c7e7fbc6c581157a677b46028f7fbea03623571edd2440d993b760"
    }
  }, {
    "fullUrl": "Observation/fbe8bd4ee5604df9f3149618851a9935bbee3e95bc4cdeac769ab12fff143e2f",
    "resource": {
      "resourceType": "Observation",
      "id": "fbe8bd4ee5604df9f3149618851a9935bbee3e95bc4cdeac769ab12fff143e2f",
      "identifier": [ {
        "system": "https://bzkf.github.io/obds-to-fhir/identifiers/residualstatus-observation-id",
        "value": "302"
      } ],
      "status": "final",
      "code": {
        "coding": [ {
          "system": "http://loinc.org",
          "code": "84892-9"
        } ]
      },
      "subject": {
        "reference": "Patient/a02e16474896f1d528cac71f2c9b4c45ac3c9028e3a53fb414a1f7882991ee07"
      },
      "focus": [ {
        "reference": "Condition/5236d8328066567b90c671091d739dc044ae00f4f9e73a5d1e6c81ed9049f335"
      } ],
      "effectiveDateTime": "2020-02-01",
      "valueCodeableConcept": {
        "coding": [ {
          "system": "https://www.medizininformatik-initiative.de/fhir/ext/modul-onko/CodeSystem/mii-cs-onko-residualstatus",
          "code": "R2"
        } ]
      }
    },
    "request": {
      "method": "PUT",
      "url": "Observation/fbe8bd4ee5604df9f3149618851a9935bbee3e95bc4cdeac769ab12fff143e2f"
    }
  }, {
    "fullUrl": "Observation/9eb57ec5d8ab449172733a268f8417ca67ec7afa98fe7e2744ed7bbad22ac4cd",
    "resource": {
      "resourceType": "Observation",
      "id": "9eb57ec5d8ab449172733a268f8417ca67ec7afa98fe7e2744ed7bbad22ac4cd",
      "meta": {
        "profile": [ "https://www.medizininformatik-initiative.de/fhir/ext/modul-onko/StructureDefinition/mii-pr-onko-tnm-t-kategorie" ]
      },
      "identifier": [ {
        "system": "485_T",
        "value": "https://bzkf.github.io/obds-to-fhir/identifiers/tnm-t-kategorie-observation-id"
      } ],
      "status": "final",
      "code": {
        "extension": [ {
          "url": "https://www.medizininformatik-initiative.de/fhir/ext/modul-onko/StructureDefinition/mii-ex-onko-tnm-cp-praefix",
          "valueCodeableConcept": {
            "coding": [ {
              "system": "https://www.uicc.org/resources/tnm",
              "code": "p"
            } ]
          }
        } ],
        "coding": [ {
          "system": "http://snomed.info/sct",
          "code": "384625004",
          "display": "pT category (observable entity)"
        } ]
      },
      "subject": {
        "reference": "Patient/a02e16474896f1d528cac71f2c9b4c45ac3c9028e3a53fb414a1f7882991ee07"
      },
      "focus": [ {
        "reference": "Condition/5236d8328066567b90c671091d739dc044ae00f4f9e73a5d1e6c81ed9049f335"
      } ],
      "effectiveDateTime": "2020-02-01",
      "valueCodeableConcept": {
        "coding": [ {
          "system": "https://www.uicc.org/resources/tnm",
          "code": "1"
        } ]
      },
      "method": {
        "coding": [ {
          "system": "https://www.medizininformatik-initiative.de/fhir/ext/modul-onko/CodeSystem/mii-cs-onko-tnm-version",
          "code": "8"
        } ]
      }
    },
    "request": {
      "method": "PUT",
      "url": "Observation/9eb57ec5d8ab449172733a268f8417ca67ec7afa98fe7e2744ed7bbad22ac4cd"
    }
  }, {
    "fullUrl": "Observation/69a0ab7e9f4b7e247f817a1b84ae13e87a83fa9d8e3f53af6315e8bff08a7d3d",
    "resource": {
      "resourceType": "Observation",
      "id": "69a0ab7e9f4b7e247f817a1b84ae13e87a83fa9d8e3f53af6315e8bff08a7d3d",
      "meta": {
        "profile": [ "https://www.medizininformatik-initiative.de/fhir/ext/modul-onko/StructureDefinition/mii-pr-onko-tnm-y-symbol" ]
      },
      "identifier": [ {
        "system": "485_y",
        "value": "https://bzkf.github.io/obds-to-fhir/identifiers/tnm-y-symbol-observation-id"
      } ],
      "status": "final",
      "code": {
        "coding": [ {
          "system": "http://loinc.org",
          "code": "101658-3"
        } ]
      },
      "subject": {
        "reference": "Patient/a02e16474896f1d528cac71f2c9b4c45ac3c9028e3a53fb414a1f7882991ee07"
      },
      "focus": [ {
        "reference": "Condition/5236d8328066567b90c671091d739dc044ae00f4f9e73a5d1e6c81ed9049f335"
      } ],
      "effectiveDateTime": "2020-02-01",
      "valueCodeableConcept": {
        "coding": [ {
          "system": "http://snomed.info/sct",
          "code": "421755005"
        } ]
      },
      "method": {
        "coding": [ {
          "system": "https://www.medizininformatik-initiative.de/fhir/ext/modul-onko/CodeSystem/mii-cs-onko-tnm-version",
          "code": "8"
        } ]
      }
    },
    "request": {
      "method": "PUT",
      "url": "Observation/69a0ab7e9f4b7e247f817a1b84ae13e87a83fa9d8e3f53af6315e8bff08a7d3d"
    }
  }, {
    "fullUrl": "Observation/bf16262583af010dc5d2ed95374c0fb38e0d51b5deab9cf0537bb2c127e837e5",
    "resource": {
      "resourceType": "Observation",
      "id": "bf16262583af010dc5d2ed95374c0fb38e0d51b5deab9cf0537bb2c127e837e5",
      "meta": {
        "profile": [ "https://www.medizininformatik-initiative.de/fhir/ext/modul-onko/StructureDefinition/mii-pr-onko-tnm-klassifikation" ]
      },
      "identifier": [ {
        "system": "https://bzkf.github.io/obds-to-fhir/identifiers/tnm-grouping-observation-id",
        "value": "485"
      } ],
      "status": "final",
      "code": {
        "coding": [ {
          "system": "http://snomed.info/sct",
          "code": "399588009",
          "display": "TNM stage grouping"
        } ]
      },
      "subject": {
        "reference": "Patient/a02e16474896f1d528cac71f2c9b4c45ac3c9028e3a53fb414a1f7882991ee07"
      },
      "focus": [ {
        "reference": "Condition/5236d8328066567b90c671091d739dc044ae00f4f9e73a5d1e6c81ed9049f335"
      } ],
      "effectiveDateTime": "2020-02-01",
      "method": {
        "coding": [ {
          "system": "https://www.medizininformatik-initiative.de/fhir/ext/modul-onko/CodeSystem/mii-cs-onko-tnm-version",
          "code": "8"
        } ]
      },
      "hasMember": [ {
        "reference": "Observation/9eb57ec5d8ab449172733a268f8417ca67ec7afa98fe7e2744ed7bbad22ac4cd"
      }, {
        "reference": "Observation/69a0ab7e9f4b7e247f817a1b84ae13e87a83fa9d8e3f53af6315e8bff08a7d3d"
      } ]
    },
    "request": {
      "method": "PUT",
      "url": "Observation/bf16262583af010dc5d2ed95374c0fb38e0d51b5deab9cf0537bb2c127e837e5"
    }
  }, {
    "fullUrl": "Observation/2deb0a1e6805021aac11dd0b28bdf526422e844358c49879ab31a3e807c37e1e",
    "resource": {
      "resourceType": "Observation",
      "id": "2deb0a1e6805021aac11dd0b28bdf526422e844358c49879ab31a3e807c37e1e",
      "meta": {
        "profile": [ "https://www.medizininformatik-initiative.de/fhir/ext/modul-onko/StructureDefinition/mii-pr-onko-verlauf" ]
      },
      "identifier": [ {
        "system": "https://bzkf.github.io/obds-to-fhir/identifiers/observation-verlauf-id",
        "value": "343"
      } ],
      "status": "final",
      "code": {
        "coding": [ {
          "system": "http://snomed.info/sct",
          "code": "396432002",
          "display": "Status of regression of tumor (observable entity)"
        } ]
      },
      "subject": {
        "reference": "Patient/a02e16474896f1d528cac71f2c9b4c45ac3c9028e3a53fb414a1f7882991ee07"
      },
      "focus": [ {
        "reference": "Condition/5236d8328066567b90c671091d739dc044ae00f4f9e73a5d1e6c81ed9049f335"
      } ],
      "effectiveDateTime": "2020-12-01",
      "valueCodeableConcept": {
        "coding": [ {
          "system": "https://www.medizininformatik-initiative.de/fhir/ext/modul-onko/CodeSystem/mii-cs-onko-verlauf-gesamtbeurteilung",
          "code": "P",
          "display": "Progression"
        } ]
      },
      "component": [ {
        "code": {
          "coding": [ {
            "system": "http://snomed.info/sct",
            "code": "277062004",
            "display": "Status des Residualtumors"
          } ]
        },
        "valueCodeableConcept": {
          "coding": [ {
            "system": "https://www.medizininformatik-initiative.de/fhir/ext/modul-onko/CodeSystem/mii-cs-onko-verlauf-primaertumor",
            "code": "P",
            "display": "Tumorreste (Residualtumor) Progress"
          } ]
        }
      }, {
        "code": {
          "coding": [ {
            "system": "http://snomed.info/sct",
            "code": "399656008",
            "display": "Status of tumor metastasis to regional lymph nodes (observable entity)"
          } ]
        },
        "valueCodeableConcept": {
          "coding": [ {
            "system": "https://www.medizininformatik-initiative.de/fhir/ext/modul-onko/CodeSystem/mii-cs-onko-verlauf-lymphknoten",
            "code": "K",
            "display": "kein Lymphknotenbefall nachweisbar"
          } ]
        }
      }, {
        "code": {
          "coding": [ {
            "system": "http://snomed.info/sct",
            "code": "399608002",
            "display": "Status of distant metastasis (observable entity)"
          } ]
        },
        "valueCodeableConcept": {
          "coding": [ {
            "system": "https://www.medizininformatik-initiative.de/fhir/ext/modul-onko/CodeSystem/mii-cs-onko-verlauf-fernmetastasen",
            "code": "K",
            "display": "keine Fernmetastasen nachweisbar"
          } ]
        }
      } ]
    },
    "request": {
      "method": "PUT",
      "url": "Observation/2deb0a1e6805021aac11dd0b28bdf526422e844358c49879ab31a3e807c37e1e"
    }
  }, {
    "fullUrl": "Condition/a9b49e6ae910db956adf674338ec65dff97a2d4c07c1f0449c154b90782b49d9",
    "resource": {
      "resourceType": "Condition",
      "id": "a9b49e6ae910db956adf674338ec65dff97a2d4c07c1f0449c154b90782b49d9",
      "meta": {
        "profile": [ "https://www.medizininformatik-initiative.de/fhir/ext/modul-onko/StructureDefinition/mii-pr-onko-diagnose-primaertumor" ]
      },
      "extension": [ {
        "url": "https://www.medizininformatik-initiative.de/fhir/ext/modul-onko/StructureDefinition/mii-ex-onko-histology-morphology-behavior-icdo3",
        "valueCodeableConcept": {
          "coding": [ {
            "system": "http://terminology.hl7.org/CodeSystem/icd-o-3",
            "version": "33",
            "code": "8720/3"
          } ]
        }
      }, {
        "url": "http://hl7.org/fhir/StructureDefinition/condition-assertedDate",
        "valueDateTime": "2020-03-01"
      } ],
      "identifier": [ {
        "system": "https://bzkf.github.io/obds-to-fhir/identifiers/primaerdiagnose-id",
        "value": "103"
      } ],
      "verificationStatus": {
        "coding": [ {
          "system": "http://terminology.hl7.org/CodeSystem/condition-ver-status",
          "code": "confirmed"
        }, {
          "system": "https://www.medizininformatik-initiative.de/fhir/ext/modul-onko/CodeSystem/mii-cs-onko-primaertumor-diagnosesicherung",
          "code": "7"
        } ]
      },
      "code": {
        "coding": [ {
          "system": "http://fhir.de/CodeSystem/bfarm/icd-10-gm",
          "version": "2020",
          "code": "C43.5"
        } ]
      },
      "bodySite": [ {
        "coding": [ {
          "system": "http://terminology.hl7.org/CodeSystem/icd-o-3",
          "version": "33",
          "code": "C44.5"
        } ]
      }, {
        "coding": [ {
          "system": "https://www.medizininformatik-initiative.de/fhir/ext/modul-onko/CodeSystem/mii-cs-onko-seitenlokalisation",
          "code": "T"
        } ]
      } ],
      "subject": {
        "reference": "Patient/a02e16474896f1d528cac71f2c9b4c45ac3c9028e3a53fb414a1f7882991ee07"
      },
      "recordedDate": "2024-09-19"
    },
    "request": {
      "method": "PUT",
      "url": "Condition/a9b49e6ae910db956adf674338ec65dff97a2d4c07c1f0449c154b90782b49d9"
    }
  }, {
    "fullUrl": "Observation/9faa00bb7f854297a496a607f353b5e62d1e0b1b8f92a5d3d7abb2a0c045d23e",
    "resource": {
      "resourceType": "Observation",
      "id": "9faa00bb7f854297a496a607f353b5e62d1e0b1b8f92a5d3d7abb2a0c045d23e",
      "meta": {
        "profile": [ "https://www.medizininformatik-initiative.de/fhir/ext/modul-onko/StructureDefinition/mii-pr-onko-allgemeiner-leistungszustand-ecog" ]
      },
      "identifier": [ {
        "system": "https://bzkf.github.io/obds-to-fhir/identifiers/allgemeiner-leistungszustand-ecog-id",
        "value": "ECOG-10_3_DI_1"
      } ],
      "status": "final",
      "code": {
        "coding": [ {
          "system": "http://snomed.info/sct",
          "code": "423740007"
        } ]
      },
      "subject": {
        "reference": "Patient/a02e16474896f1d528cac71f2c9b4c45ac3c9028e3a53fb414a1f7882991ee07"
      },
      "focus": [ {
        "reference": "Condition/a9b49e6ae910db956adf674338ec65dff97a2d4c07c1f0449c154b90782b49d9"
      } ],
      "effectiveDateTime": "2020-03-01",
      "valueCodeableConcept": {
        "coding": [ {
          "system": "https://www.medizininformatik-initiative.de/fhir/ext/modul-onko/CodeSystem/mii-cs-onko-allgemeiner-leistungszustand-ecog",
          "code": "0",
          "display": "Normale, uneingeschränkte Aktivität wie vor der Erkrankung (90 - 100 % nach Karnofsky)"
        } ]
      }
    },
    "request": {
      "method": "PUT",
      "url": "Observation/9faa00bb7f854297a496a607f353b5e62d1e0b1b8f92a5d3d7abb2a0c045d23e"
    }
  }, {
    "fullUrl": "Observation/5ca9065763d0003ca499286e52430112a0ff509bb59a36d83694e921de10bd70",
    "resource": {
      "resourceType": "Observation",
      "id": "5ca9065763d0003ca499286e52430112a0ff509bb59a36d83694e921de10bd70",
      "meta": {
        "profile": [ "https://www.medizininformatik-initiative.de/fhir/ext/modul-onko/StructureDefinition/mii-pr-onko-verlauf" ]
      },
      "identifier": [ {
        "system": "https://bzkf.github.io/obds-to-fhir/identifiers/observation-verlauf-id",
        "value": "344"
      } ],
      "status": "final",
      "code": {
        "coding": [ {
          "system": "http://snomed.info/sct",
          "code": "396432002",
          "display": "Status of regression of tumor (observable entity)"
        } ]
      },
      "subject": {
        "reference": "Patient/a02e16474896f1d528cac71f2c9b4c45ac3c9028e3a53fb414a1f7882991ee07"
      },
      "focus": [ {
        "reference": "Condition/a9b49e6ae910db956adf674338ec65dff97a2d4c07c1f0449c154b90782b49d9"
      } ],
      "effectiveDateTime": "2021-12-15",
      "valueCodeableConcept": {
        "coding": [ {
          "system": "https://www.medizininformatik-initiative.de/fhir/ext/modul-onko/CodeSystem/mii-cs-onko-verlauf-gesamtbeurteilung",
          "code": "P",
          "display": "Progression"
        } ]
      },
      "component": [ {
        "code": {
          "coding": [ {
            "system": "http://snomed.info/sct",
            "code": "277062004",
            "display": "Status des Residualtumors"
          } ]
        },
        "valueCodeableConcept": {
          "coding": [ {
            "system": "https://www.medizininformatik-initiative.de/fhir/ext/modul-onko/CodeSystem/mii-cs-onko-verlauf-primaertumor",
            "code": "P",
            "display": "Tumorreste (Residualtumor) Progress"
          } ]
        }
      }, {
        "code": {
          "coding": [ {
            "system": "http://snomed.info/sct",
            "code": "399656008",
            "display": "Status of tumor metastasis to regional lymph nodes (observable entity)"
          } ]
        },
        "valueCodeableConcept": {
          "coding": [ {
            "system": "https://www.medizininformatik-initiative.de/fhir/ext/modul-onko/CodeSystem/mii-cs-onko-verlauf-lymphknoten",
            "code": "K",
            "display": "kein Lymphknotenbefall nachweisbar"
          } ]
        }
      }, {
        "code": {
          "coding": [ {
            "system": "http://snomed.info/sct",
            "code": "399608002",
            "display": "Status of distant metastasis (observable entity)"
          } ]
        },
        "valueCodeableConcept": {
          "coding": [ {
            "system": "https://www.medizininformatik-initiative.de/fhir/ext/modul-onko/CodeSystem/mii-cs-onko-verlauf-fernmetastasen",
            "code": "K",
            "display": "keine Fernmetastasen nachweisbar"
          } ]
        }
      } ]
    },
    "request": {
      "method": "PUT",
      "url": "Observation/5ca9065763d0003ca499286e52430112a0ff509bb59a36d83694e921de10bd70"
    }
  }, {
    "fullUrl": "Procedure/1b566748e4b3f7c304f866b98ba11696eb2cb16ee4f8627bb187ecbcee4b46b0",
    "resource": {
      "resourceType": "Procedure",
      "id": "1b566748e4b3f7c304f866b98ba11696eb2cb16ee4f8627bb187ecbcee4b46b0",
      "meta": {
        "profile": [ "https://www.medizininformatik-initiative.de/fhir/ext/modul-onko/StructureDefinition/mii-pr-onko-operation" ]
      },
      "extension": [ {
        "url": "https://www.medizininformatik-initiative.de/fhir/ext/modul-onko/StructureDefinition/mii-ex-onko-operation-intention",
        "valueCodeableConcept": {
          "coding": [ {
            "system": "https://www.medizininformatik-initiative.de/fhir/ext/modul-onko/CodeSystem/mii-cs-onko-intention",
            "code": "K"
          } ]
        }
      } ],
      "identifier": [ {
        "system": "https://bzkf.github.io/obds-to-fhir/identifiers/operation-procedure-id",
        "value": "3035-894.1"
      } ],
      "status": "completed",
      "category": {
        "coding": [ {
          "system": "http://snomed.info/sct",
          "code": "387713003",
          "display": "Surgical procedure"
        } ]
      },
      "code": {
        "coding": [ {
          "system": "http://fhir.de/CodeSystem/bfarm/ops",
          "version": "2021",
          "code": "5-894.1"
        } ]
      },
      "subject": {
        "reference": "Patient/a02e16474896f1d528cac71f2c9b4c45ac3c9028e3a53fb414a1f7882991ee07"
      },
      "performedDateTime": "2021-12-20",
      "reasonReference": [ {
        "reference": "Condition/a9b49e6ae910db956adf674338ec65dff97a2d4c07c1f0449c154b90782b49d9"
      } ],
      "outcome": {
        "coding": [ {
          "system": "https://www.medizininformatik-initiative.de/fhir/ext/modul-onko/CodeSystem/mii-cs-onko-residualstatus",
          "code": "R0"
        } ]
      }
    },
    "request": {
      "method": "PUT",
      "url": "Procedure/1b566748e4b3f7c304f866b98ba11696eb2cb16ee4f8627bb187ecbcee4b46b0"
    }
  }, {
    "fullUrl": "Observation/820a4d15bc65ede836e0b68922b75855e9ab63f2ce4b33c39e8796096107b357",
    "resource": {
      "resourceType": "Observation",
      "id": "820a4d15bc65ede836e0b68922b75855e9ab63f2ce4b33c39e8796096107b357",
      "identifier": [ {
        "system": "https://bzkf.github.io/obds-to-fhir/identifiers/residualstatus-observation-id",
        "value": "303"
      } ],
      "status": "final",
      "code": {
        "coding": [ {
          "system": "http://loinc.org",
          "code": "84892-9"
        } ]
      },
      "subject": {
        "reference": "Patient/a02e16474896f1d528cac71f2c9b4c45ac3c9028e3a53fb414a1f7882991ee07"
      },
      "focus": [ {
        "reference": "Condition/a9b49e6ae910db956adf674338ec65dff97a2d4c07c1f0449c154b90782b49d9"
      } ],
      "effectiveDateTime": "2021-12-20",
      "valueCodeableConcept": {
        "coding": [ {
          "system": "https://www.medizininformatik-initiative.de/fhir/ext/modul-onko/CodeSystem/mii-cs-onko-residualstatus",
          "code": "R2"
        } ]
      }
    },
    "request": {
      "method": "PUT",
      "url": "Observation/820a4d15bc65ede836e0b68922b75855e9ab63f2ce4b33c39e8796096107b357"
    }
  } ]
}