{
  "resourceType": "Bundle",
  "id": "43d8d22e39e073fbb83f221071d60fe92e947d234ada77f7401d0eb4d230a849",
  "type": "transaction",
  "entry": [ {
    "fullUrl": "Patient/43d8d22e39e073fbb83f221071d60fe92e947d234ada77f7401d0eb4d230a849",
    "resource": {
      "resourceType": "Patient",
      "id": "43d8d22e39e073fbb83f221071d60fe92e947d234ada77f7401d0eb4d230a849",
      "meta": {
        "profile": [ "https://www.medizininformatik-initiative.de/fhir/core/modul-person/StructureDefinition/PatientPseudonymisiert" ]
      },
      "identifier": [ {
        "type": {
          "coding": [ {
            "system": "http://terminology.hl7.org/CodeSystem/v2-0203",
            "code": "MR",
            "display": "Medical record number"
          }, {
            "system": "http://terminology.hl7.org/CodeSystem/v3-ObservationValue",
            "code": "PSEUDED",
            "display": "pseudonymized"
          } ]
        },
        "system": "https://bzkf.github.io/obds-to-fhir/identifiers/patient-id",
        "value": "19"
      } ],
      "gender": "female",
      "birthDate": "1950-05-01",
      "address": [ {
        "type": "both",
        "postalCode": "12345",
        "country": "DE"
      } ]
    },
    "request": {
      "method": "PUT",
      "url": "Patient/43d8d22e39e073fbb83f221071d60fe92e947d234ada77f7401d0eb4d230a849"
    }
  }, {
    "fullUrl": "Condition/c65dc4a292a235b7490c12e7e4a869e754b1d3ef6c4f75aacfd828e92ba8e920",
    "resource": {
      "resourceType": "Condition",
      "id": "c65dc4a292a235b7490c12e7e4a869e754b1d3ef6c4f75aacfd828e92ba8e920",
      "meta": {
        "profile": [ "https://www.medizininformatik-initiative.de/fhir/ext/modul-onko/StructureDefinition/mii-pr-onko-diagnose-primaertumor" ]
      },
      "extension": [ {
        "url": "https://www.medizininformatik-initiative.de/fhir/ext/modul-onko/StructureDefinition/mii-ex-onko-histology-morphology-behavior-icdo3",
        "valueCodeableConcept": {
          "coding": [ {
            "system": "http://terminology.hl7.org/CodeSystem/icd-o-3",
            "version": "33",
            "code": "8077/2"
          } ]
        }
      }, {
        "url": "http://hl7.org/fhir/StructureDefinition/condition-assertedDate",
        "valueDateTime": "2022-10-02"
      } ],
      "identifier": [ {
        "system": "https://bzkf.github.io/obds-to-fhir/identifiers/primaerdiagnose-id",
        "value": "195"
      } ],
      "verificationStatus": {
        "coding": [ {
          "system": "http://terminology.hl7.org/CodeSystem/condition-ver-status",
          "code": "confirmed"
        }, {
          "system": "https://www.medizininformatik-initiative.de/fhir/ext/modul-onko/CodeSystem/mii-cs-onko-primaertumor-diagnosesicherung",
          "code": "5"
        } ]
      },
      "code": {
        "coding": [ {
          "system": "http://fhir.de/CodeSystem/bfarm/icd-10-gm",
          "version": "2022",
          "code": "D06.9"
        } ]
      },
      "bodySite": [ {
        "coding": [ {
          "system": "http://terminology.hl7.org/CodeSystem/icd-o-3",
          "version": "33",
          "code": "C53.9"
        } ]
      }, {
        "coding": [ {
          "system": "https://www.medizininformatik-initiative.de/fhir/ext/modul-onko/CodeSystem/mii-cs-onko-seitenlokalisation",
          "code": "T"
        } ]
      } ],
      "subject": {
        "reference": "Patient/43d8d22e39e073fbb83f221071d60fe92e947d234ada77f7401d0eb4d230a849"
      },
      "recordedDate": "2024-04-22"
    },
    "request": {
      "method": "PUT",
      "url": "Condition/c65dc4a292a235b7490c12e7e4a869e754b1d3ef6c4f75aacfd828e92ba8e920"
    }
  }, {
    "fullUrl": "Observation/ee9229bfb55adfac28d31404e6774949fe5f9e3e9f3a3a7c6c0e987a1e192d62",
    "resource": {
      "resourceType": "Observation",
      "id": "ee9229bfb55adfac28d31404e6774949fe5f9e3e9f3a3a7c6c0e987a1e192d62",
      "meta": {
        "profile": [ "https://www.medizininformatik-initiative.de/fhir/ext/modul-onko/StructureDefinition/mii-pr-onko-allgemeiner-leistungszustand-ecog" ]
      },
      "identifier": [ {
        "system": "https://bzkf.github.io/obds-to-fhir/identifiers/allgemeiner-leistungszustand-ecog-id",
        "value": "ECOG-10_5_DI_1"
      } ],
      "status": "final",
      "code": {
        "coding": [ {
          "system": "http://snomed.info/sct",
          "code": "423740007"
        } ]
      },
      "subject": {
        "reference": "Patient/43d8d22e39e073fbb83f221071d60fe92e947d234ada77f7401d0eb4d230a849"
      },
      "focus": [ {
        "reference": "Condition/c65dc4a292a235b7490c12e7e4a869e754b1d3ef6c4f75aacfd828e92ba8e920"
      } ],
      "effectiveDateTime": "2022-10-02",
      "valueCodeableConcept": {
        "coding": [ {
          "system": "https://www.medizininformatik-initiative.de/fhir/ext/modul-onko/CodeSystem/mii-cs-onko-allgemeiner-leistungszustand-ecog",
          "code": "0",
          "display": "Normale, uneingeschränkte Aktivität wie vor der Erkrankung (90 - 100 % nach Karnofsky)"
        } ]
      }
    },
    "request": {
      "method": "PUT",
      "url": "Observation/ee9229bfb55adfac28d31404e6774949fe5f9e3e9f3a3a7c6c0e987a1e192d62"
    }
  }, {
    "fullUrl": "Specimen/ce77359a50c9005ab6053fa70782271998c8310b83965837f65b5b0a5cece9bc",
    "resource": {
      "resourceType": "Specimen",
      "id": "ce77359a50c9005ab6053fa70782271998c8310b83965837f65b5b0a5cece9bc",
      "meta": {
        "profile": [ "https://www.medizininformatik-initiative.de/fhir/ext/modul-onko/StructureDefinition/mii-pr-onko-specimen" ]
      },
      "identifier": [ {
        "system": "https://bzkf.github.io/obds-to-fhir/identifiers/specimen-id",
        "value": "53"
      } ],
      "accessionIdentifier": {
        "value": "X/98765/1"
      },
      "subject": {
        "reference": "Patient/43d8d22e39e073fbb83f221071d60fe92e947d234ada77f7401d0eb4d230a849"
      },
      "collection": {
        "collectedDateTime": "2022-10-03"
      }
    },
    "request": {
      "method": "PUT",
      "url": "Specimen/ce77359a50c9005ab6053fa70782271998c8310b83965837f65b5b0a5cece9bc"
    }
  }, {
    "fullUrl": "Observation/93df6b901ff91332bb1cf1cd6e87c5182e6bf37cf73f7a4900173eb1729bb621",
    "resource": {
      "resourceType": "Observation",
      "id": "93df6b901ff91332bb1cf1cd6e87c5182e6bf37cf73f7a4900173eb1729bb621",
      "meta": {
        "profile": [ "https://www.medizininformatik-initiative.de/fhir/ext/modul-onko/StructureDefinition/mii-pr-onko-histologie-icdo3" ]
      },
      "identifier": [ {
        "system": "https://bzkf.github.io/obds-to-fhir/identifiers/observation-histologie-id",
        "value": "53-ICDO3-8077/2"
      } ],
      "status": "final",
      "code": {
        "coding": [ {
          "system": "http://loinc.org",
          "code": "59847-4"
        } ]
      },
      "subject": {
        "reference": "Patient/43d8d22e39e073fbb83f221071d60fe92e947d234ada77f7401d0eb4d230a849"
      },
      "focus": [ {
        "reference": "Condition/c65dc4a292a235b7490c12e7e4a869e754b1d3ef6c4f75aacfd828e92ba8e920"
      } ],
      "effectiveDateTime": "2022-10-03",
      "valueCodeableConcept": {
        "coding": [ {
          "system": "http://terminology.hl7.org/CodeSystem/icd-o-3",
          "version": "33",
          "code": "8077/2"
        } ],
        "text": "Zervikale intraepitheliale Neoplasie Grad 3"
      },
      "specimen": {
        "reference": "Specimen/ce77359a50c9005ab6053fa70782271998c8310b83965837f65b5b0a5cece9bc"
      }
    },
    "request": {
      "method": "PUT",
      "url": "Observation/93df6b901ff91332bb1cf1cd6e87c5182e6bf37cf73f7a4900173eb1729bb621"
    }
  }, {
    "fullUrl": "Observation/e635685c1dd8eccfb98195fbf658b3880e72664d04be47cedf02aa55d311a7d2",
    "resource": {
      "resourceType": "Observation",
      "id": "e635685c1dd8eccfb98195fbf658b3880e72664d04be47cedf02aa55d311a7d2",
      "meta": {
        "profile": [ "https://www.medizininformatik-initiative.de/fhir/ext/modul-onko/StructureDefinition/mii-pr-onko-grading" ]
      },
      "identifier": [ {
        "system": "https://bzkf.github.io/obds-to-fhir/identifiers/grading-observation-id",
        "value": "53-grading"
      } ],
      "status": "final",
      "category": [ {
        "coding": [ {
          "system": "http://terminology.hl7.org/CodeSystem/observation-category",
          "code": "laboratory"
        } ]
      } ],
      "code": {
        "coding": [ {
          "system": "http://loinc.org",
          "code": "33732-9"
        }, {
          "system": "http://snomed.info/sct",
          "code": "371469007"
        } ]
      },
      "subject": {
        "reference": "Patient/43d8d22e39e073fbb83f221071d60fe92e947d234ada77f7401d0eb4d230a849"
      },
      "focus": [ {
        "reference": "Condition/c65dc4a292a235b7490c12e7e4a869e754b1d3ef6c4f75aacfd828e92ba8e920"
      } ],
      "effectiveDateTime": "2022-10-03",
      "valueCodeableConcept": {
        "coding": [ {
          "system": "https://www.medizininformatik-initiative.de/fhir/ext/modul-onko/CodeSystem/mii-cs-onko-grading",
          "code": "3"
        } ]
      },
      "specimen": {
        "reference": "Specimen/ce77359a50c9005ab6053fa70782271998c8310b83965837f65b5b0a5cece9bc"
      }
    },
    "request": {
      "method": "PUT",
      "url": "Observation/e635685c1dd8eccfb98195fbf658b3880e72664d04be47cedf02aa55d311a7d2"
    }
  }, {
    "fullUrl": "Observation/f188bf42ff1a143c3cf83257db96c935df093c6de96f214d7ce30c74e4ac2912",
    "resource": {
      "resourceType": "Observation",
      "id": "f188bf42ff1a143c3cf83257db96c935df093c6de96f214d7ce30c74e4ac2912",
      "meta": {
        "profile": [ "https://www.medizininformatik-initiative.de/fhir/ext/modul-onko/StructureDefinition/mii-pr-onko-studienteilnahme" ]
      },
      "identifier": [ {
        "system": "https://bzkf.github.io/obds-to-fhir/identifiers/studienteilnahme-id",
        "value": "10_5_DI_1_Studienteilnahme"
      } ],
      "status": "final",
      "code": {
        "coding": [ {
          "system": "http://snomed.info/sct",
          "code": "709491003",
          "display": "Enrollment in clinical trial (procedure)"
        } ]
      },
      "subject": {
        "reference": "Patient/43d8d22e39e073fbb83f221071d60fe92e947d234ada77f7401d0eb4d230a849"
      },
      "focus": [ {
        "reference": "Condition/c65dc4a292a235b7490c12e7e4a869e754b1d3ef6c4f75aacfd828e92ba8e920"
      } ],
      "valueCodeableConcept": {
        "coding": [ {
          "system": "https://www.medizininformatik-initiative.de/fhir/ext/modul-onko/CodeSystem/mii-cs-onko-studienteilnahme",
          "code": "N"
        } ]
      }
    },
    "request": {
      "method": "PUT",
      "url": "Observation/f188bf42ff1a143c3cf83257db96c935df093c6de96f214d7ce30c74e4ac2912"
    }
  }, {
    "fullUrl": "Observation/be4afbed0abf31d896e2725f1131e88d5e3cdbe910d0a6c151d261eedc1c377a",
    "resource": {
      "resourceType": "Observation",
      "id": "be4afbed0abf31d896e2725f1131e88d5e3cdbe910d0a6c151d261eedc1c377a",
      "meta": {
        "profile": [ "https://www.medizininformatik-initiative.de/fhir/ext/modul-onko/StructureDefinition/mii-pr-onko-tnm-t-kategorie" ]
      },
      "identifier": [ {
        "system": "https://bzkf.github.io/obds-to-fhir/identifiers/tnm-t-kategorie-observation-id",
        "value": "47_T"
      } ],
      "status": "final",
      "code": {
        "extension": [ {
          "url": "https://www.medizininformatik-initiative.de/fhir/ext/modul-onko/StructureDefinition/mii-ex-onko-tnm-cp-praefix",
          "valueCodeableConcept": {
            "coding": [ {
              "system": "https://www.uicc.org/resources/tnm",
              "code": "c"
            } ]
          }
        } ],
        "coding": [ {
          "system": "http://snomed.info/sct",
          "code": "399504009",
          "display": "cT category (observable entity)"
        } ]
      },
      "subject": {
        "reference": "Patient/43d8d22e39e073fbb83f221071d60fe92e947d234ada77f7401d0eb4d230a849"
      },
      "focus": [ {
        "reference": "Condition/c65dc4a292a235b7490c12e7e4a869e754b1d3ef6c4f75aacfd828e92ba8e920"
      } ],
      "effectiveDateTime": "2022-10-02",
      "valueCodeableConcept": {
        "coding": [ {
          "system": "https://www.uicc.org/resources/tnm",
          "code": "Tis"
        } ]
      },
      "method": {
        "coding": [ {
          "system": "https://www.medizininformatik-initiative.de/fhir/ext/modul-onko/CodeSystem/mii-cs-onko-tnm-version",
          "code": "8"
        } ]
      }
    },
    "request": {
      "method": "PUT",
      "url": "Observation/be4afbed0abf31d896e2725f1131e88d5e3cdbe910d0a6c151d261eedc1c377a"
    }
  }, {
    "fullUrl": "Observation/eadd814e27120094ec1e1ebbdea718e278d111d43bdb0cac5c6d5b310af6e599",
    "resource": {
      "resourceType": "Observation",
      "id": "eadd814e27120094ec1e1ebbdea718e278d111d43bdb0cac5c6d5b310af6e599",
      "meta": {
        "profile": [ "https://www.medizininformatik-initiative.de/fhir/ext/modul-onko/StructureDefinition/mii-pr-onko-tnm-n-kategorie" ]
      },
      "identifier": [ {
        "system": "https://bzkf.github.io/obds-to-fhir/identifiers/tnm-n-kategorie-observation-id",
        "value": "47_N"
      } ],
      "status": "final",
      "code": {
        "extension": [ {
          "url": "https://www.medizininformatik-initiative.de/fhir/ext/modul-onko/StructureDefinition/mii-ex-onko-tnm-cp-praefix",
          "valueCodeableConcept": {
            "coding": [ {
              "system": "https://www.uicc.org/resources/tnm",
              "code": "c"
            } ]
          }
        } ],
        "coding": [ {
          "system": "http://snomed.info/sct",
          "code": "399534004",
          "display": "cN category (observable entity)"
        } ]
      },
      "subject": {
        "reference": "Patient/43d8d22e39e073fbb83f221071d60fe92e947d234ada77f7401d0eb4d230a849"
      },
      "focus": [ {
        "reference": "Condition/c65dc4a292a235b7490c12e7e4a869e754b1d3ef6c4f75aacfd828e92ba8e920"
      } ],
      "effectiveDateTime": "2022-10-02",
      "valueCodeableConcept": {
        "coding": [ {
          "system": "https://www.uicc.org/resources/tnm",
          "code": "N0"
        } ]
      },
      "method": {
        "coding": [ {
          "system": "https://www.medizininformatik-initiative.de/fhir/ext/modul-onko/CodeSystem/mii-cs-onko-tnm-version",
          "code": "8"
        } ]
      }
    },
    "request": {
      "method": "PUT",
      "url": "Observation/eadd814e27120094ec1e1ebbdea718e278d111d43bdb0cac5c6d5b310af6e599"
    }
  }, {
    "fullUrl": "Observation/5914440bef6ccb1c9514cac7b90300cfd5b3b2d7e9866efea21fb9c01532d98f",
    "resource": {
      "resourceType": "Observation",
      "id": "5914440bef6ccb1c9514cac7b90300cfd5b3b2d7e9866efea21fb9c01532d98f",
      "meta": {
        "profile": [ "https://www.medizininformatik-initiative.de/fhir/ext/modul-onko/StructureDefinition/mii-pr-onko-tnm-m-kategorie" ]
      },
      "identifier": [ {
        "system": "https://bzkf.github.io/obds-to-fhir/identifiers/tnm-m-kategorie-observation-id",
        "value": "47_M"
      } ],
      "status": "final",
      "code": {
        "extension": [ {
          "url": "https://www.medizininformatik-initiative.de/fhir/ext/modul-onko/StructureDefinition/mii-ex-onko-tnm-cp-praefix",
          "valueCodeableConcept": {
            "coding": [ {
              "system": "https://www.uicc.org/resources/tnm",
              "code": "c"
            } ]
          }
        } ],
        "coding": [ {
          "system": "http://snomed.info/sct",
          "code": "399387003",
          "display": "cM category (observable entity)"
        } ]
      },
      "subject": {
        "reference": "Patient/43d8d22e39e073fbb83f221071d60fe92e947d234ada77f7401d0eb4d230a849"
      },
      "focus": [ {
        "reference": "Condition/c65dc4a292a235b7490c12e7e4a869e754b1d3ef6c4f75aacfd828e92ba8e920"
      } ],
      "effectiveDateTime": "2022-10-02",
      "valueCodeableConcept": {
        "coding": [ {
          "system": "https://www.uicc.org/resources/tnm",
          "code": "M0"
        } ]
      },
      "method": {
        "coding": [ {
          "system": "https://www.medizininformatik-initiative.de/fhir/ext/modul-onko/CodeSystem/mii-cs-onko-tnm-version",
          "code": "8"
        } ]
      }
    },
    "request": {
      "method": "PUT",
      "url": "Observation/5914440bef6ccb1c9514cac7b90300cfd5b3b2d7e9866efea21fb9c01532d98f"
    }
  }, {
    "fullUrl": "Observation/56cfcc38da3fda6048bb41b2b83e757096f7116ef72a6ce6e3bf753b537126ae",
    "resource": {
      "resourceType": "Observation",
      "id": "56cfcc38da3fda6048bb41b2b83e757096f7116ef72a6ce6e3bf753b537126ae",
      "meta": {
        "profile": [ "https://www.medizininformatik-initiative.de/fhir/ext/modul-onko/StructureDefinition/mii-pr-onko-tnm-klassifikation" ]
      },
      "identifier": [ {
        "system": "https://bzkf.github.io/obds-to-fhir/identifiers/tnm-grouping-observation-id",
        "value": "47"
      } ],
      "status": "final",
      "code": {
        "coding": [ {
          "system": "http://snomed.info/sct",
          "code": "399537006",
          "display": "Clinical TNM stage grouping"
        } ]
      },
      "subject": {
        "reference": "Patient/43d8d22e39e073fbb83f221071d60fe92e947d234ada77f7401d0eb4d230a849"
      },
      "focus": [ {
        "reference": "Condition/c65dc4a292a235b7490c12e7e4a869e754b1d3ef6c4f75aacfd828e92ba8e920"
      } ],
      "effectiveDateTime": "2022-10-02",
      "valueCodeableConcept": {
        "coding": [ {
          "system": "https://www.uicc.org/resources/tnm",
          "code": "0",
          "display": "Stadium 0"
        } ]
      },
      "method": {
        "coding": [ {
          "system": "https://www.medizininformatik-initiative.de/fhir/ext/modul-onko/CodeSystem/mii-cs-onko-tnm-version",
          "code": "8"
        } ]
      },
      "hasMember": [ {
        "reference": "Observation/be4afbed0abf31d896e2725f1131e88d5e3cdbe910d0a6c151d261eedc1c377a"
      }, {
        "reference": "Observation/eadd814e27120094ec1e1ebbdea718e278d111d43bdb0cac5c6d5b310af6e599"
      }, {
        "reference": "Observation/5914440bef6ccb1c9514cac7b90300cfd5b3b2d7e9866efea21fb9c01532d98f"
      } ]
    },
    "request": {
      "method": "PUT",
      "url": "Observation/56cfcc38da3fda6048bb41b2b83e757096f7116ef72a6ce6e3bf753b537126ae"
    }
  }, {
    "fullUrl": "Observation/f0c360f31506ee3a209d41d5a70943b5eb3b4f571e3ac6ef59fcd381343c8c5c",
    "resource": {
      "resourceType": "Observation",
      "id": "f0c360f31506ee3a209d41d5a70943b5eb3b4f571e3ac6ef59fcd381343c8c5c",
      "meta": {
        "profile": [ "https://www.medizininformatik-initiative.de/fhir/ext/modul-onko/StructureDefinition/mii-pr-onko-tnm-t-kategorie" ]
      },
      "identifier": [ {
        "system": "https://bzkf.github.io/obds-to-fhir/identifiers/tnm-t-kategorie-observation-id",
        "value": "48_T"
      } ],
      "status": "final",
      "code": {
        "extension": [ {
          "url": "https://www.medizininformatik-initiative.de/fhir/ext/modul-onko/StructureDefinition/mii-ex-onko-tnm-cp-praefix",
          "valueCodeableConcept": {
            "coding": [ {
              "system": "https://www.uicc.org/resources/tnm",
              "code": "p"
            } ]
          }
        } ],
        "coding": [ {
          "system": "http://snomed.info/sct",
          "code": "384625004",
          "display": "pT category (observable entity)"
        } ]
      },
      "subject": {
        "reference": "Patient/43d8d22e39e073fbb83f221071d60fe92e947d234ada77f7401d0eb4d230a849"
      },
      "focus": [ {
        "reference": "Condition/c65dc4a292a235b7490c12e7e4a869e754b1d3ef6c4f75aacfd828e92ba8e920"
      } ],
      "effectiveDateTime": "2022-10-03",
      "valueCodeableConcept": {
        "coding": [ {
          "system": "https://www.uicc.org/resources/tnm",
          "code": "Tis"
        } ]
      },
      "method": {
        "coding": [ {
          "system": "https://www.medizininformatik-initiative.de/fhir/ext/modul-onko/CodeSystem/mii-cs-onko-tnm-version",
          "code": "8"
        } ]
      }
    },
    "request": {
      "method": "PUT",
      "url": "Observation/f0c360f31506ee3a209d41d5a70943b5eb3b4f571e3ac6ef59fcd381343c8c5c"
    }
  }, {
    "fullUrl": "Observation/ceac7ba9b8a4f509fa8e9c0f1b40443b06da41255351caf76f19fbdbfe9f55f0",
    "resource": {
      "resourceType": "Observation",
      "id": "ceac7ba9b8a4f509fa8e9c0f1b40443b06da41255351caf76f19fbdbfe9f55f0",
      "meta": {
        "profile": [ "https://www.medizininformatik-initiative.de/fhir/ext/modul-onko/StructureDefinition/mii-pr-onko-tnm-n-kategorie" ]
      },
      "identifier": [ {
        "system": "https://bzkf.github.io/obds-to-fhir/identifiers/tnm-n-kategorie-observation-id",
        "value": "48_N"
      } ],
      "status": "final",
      "code": {
        "extension": [ {
          "url": "https://www.medizininformatik-initiative.de/fhir/ext/modul-onko/StructureDefinition/mii-ex-onko-tnm-cp-praefix",
          "valueCodeableConcept": {
            "coding": [ {
              "system": "https://www.uicc.org/resources/tnm",
              "code": "c"
            } ]
          }
        } ],
        "coding": [ {
          "system": "http://snomed.info/sct",
          "code": "399534004",
          "display": "cN category (observable entity)"
        } ]
      },
      "subject": {
        "reference": "Patient/43d8d22e39e073fbb83f221071d60fe92e947d234ada77f7401d0eb4d230a849"
      },
      "focus": [ {
        "reference": "Condition/c65dc4a292a235b7490c12e7e4a869e754b1d3ef6c4f75aacfd828e92ba8e920"
      } ],
      "effectiveDateTime": "2022-10-03",
      "valueCodeableConcept": {
        "coding": [ {
          "system": "https://www.uicc.org/resources/tnm",
          "code": "N0"
        } ]
      },
      "method": {
        "coding": [ {
          "system": "https://www.medizininformatik-initiative.de/fhir/ext/modul-onko/CodeSystem/mii-cs-onko-tnm-version",
          "code": "8"
        } ]
      }
    },
    "request": {
      "method": "PUT",
      "url": "Observation/ceac7ba9b8a4f509fa8e9c0f1b40443b06da41255351caf76f19fbdbfe9f55f0"
    }
  }, {
    "fullUrl": "Observation/46af0dc49a2d9e57f2ea14a010606d445e139df12d31ec689b0e20dc6a3a3c48",
    "resource": {
      "resourceType": "Observation",
      "id": "46af0dc49a2d9e57f2ea14a010606d445e139df12d31ec689b0e20dc6a3a3c48",
      "meta": {
        "profile": [ "https://www.medizininformatik-initiative.de/fhir/ext/modul-onko/StructureDefinition/mii-pr-onko-tnm-m-kategorie" ]
      },
      "identifier": [ {
        "system": "https://bzkf.github.io/obds-to-fhir/identifiers/tnm-m-kategorie-observation-id",
        "value": "48_M"
      } ],
      "status": "final",
      "code": {
        "extension": [ {
          "url": "https://www.medizininformatik-initiative.de/fhir/ext/modul-onko/StructureDefinition/mii-ex-onko-tnm-cp-praefix",
          "valueCodeableConcept": {
            "coding": [ {
              "system": "https://www.uicc.org/resources/tnm",
              "code": "c"
            } ]
          }
        } ],
        "coding": [ {
          "system": "http://snomed.info/sct",
          "code": "399387003",
          "display": "cM category (observable entity)"
        } ]
      },
      "subject": {
        "reference": "Patient/43d8d22e39e073fbb83f221071d60fe92e947d234ada77f7401d0eb4d230a849"
      },
      "focus": [ {
        "reference": "Condition/c65dc4a292a235b7490c12e7e4a869e754b1d3ef6c4f75aacfd828e92ba8e920"
      } ],
      "effectiveDateTime": "2022-10-03",
      "valueCodeableConcept": {
        "coding": [ {
          "system": "https://www.uicc.org/resources/tnm",
          "code": "M0"
        } ]
      },
      "method": {
        "coding": [ {
          "system": "https://www.medizininformatik-initiative.de/fhir/ext/modul-onko/CodeSystem/mii-cs-onko-tnm-version",
          "code": "8"
        } ]
      }
    },
    "request": {
      "method": "PUT",
      "url": "Observation/46af0dc49a2d9e57f2ea14a010606d445e139df12d31ec689b0e20dc6a3a3c48"
    }
  }, {
    "fullUrl": "Observation/dabf6ad7a2b19a7957142805181e44862552c700c10b3c328b58c76f28dd738b",
    "resource": {
      "resourceType": "Observation",
      "id": "dabf6ad7a2b19a7957142805181e44862552c700c10b3c328b58c76f28dd738b",
      "meta": {
        "profile": [ "https://www.medizininformatik-initiative.de/fhir/ext/modul-onko/StructureDefinition/mii-pr-onko-tnm-klassifikation" ]
      },
      "identifier": [ {
        "system": "https://bzkf.github.io/obds-to-fhir/identifiers/tnm-grouping-observation-id",
        "value": "48"
      } ],
      "status": "final",
      "code": {
        "coding": [ {
          "system": "http://snomed.info/sct",
          "code": "399588009",
          "display": "Pathologic TNM stage grouping"
        } ]
      },
      "subject": {
        "reference": "Patient/43d8d22e39e073fbb83f221071d60fe92e947d234ada77f7401d0eb4d230a849"
      },
      "focus": [ {
        "reference": "Condition/c65dc4a292a235b7490c12e7e4a869e754b1d3ef6c4f75aacfd828e92ba8e920"
      } ],
      "effectiveDateTime": "2022-10-03",
      "valueCodeableConcept": {
        "coding": [ {
          "system": "https://www.uicc.org/resources/tnm",
          "code": "0",
          "display": "Stadium 0"
        } ]
      },
      "method": {
        "coding": [ {
          "system": "https://www.medizininformatik-initiative.de/fhir/ext/modul-onko/CodeSystem/mii-cs-onko-tnm-version",
          "code": "8"
        } ]
      },
      "hasMember": [ {
        "reference": "Observation/f0c360f31506ee3a209d41d5a70943b5eb3b4f571e3ac6ef59fcd381343c8c5c"
      }, {
        "reference": "Observation/ceac7ba9b8a4f509fa8e9c0f1b40443b06da41255351caf76f19fbdbfe9f55f0"
      }, {
        "reference": "Observation/46af0dc49a2d9e57f2ea14a010606d445e139df12d31ec689b0e20dc6a3a3c48"
      } ]
    },
    "request": {
      "method": "PUT",
      "url": "Observation/dabf6ad7a2b19a7957142805181e44862552c700c10b3c328b58c76f28dd738b"
    }
  }, {
    "fullUrl": "Procedure/e05a1e24b4ff9a0191bf1ec8ac695cfb0aa7b3556765aa36b9f58d3275704541",
    "resource": {
      "resourceType": "Procedure",
      "id": "e05a1e24b4ff9a0191bf1ec8ac695cfb0aa7b3556765aa36b9f58d3275704541",
      "meta": {
        "profile": [ "https://www.medizininformatik-initiative.de/fhir/ext/modul-onko/StructureDefinition/mii-pr-onko-operation" ]
      },
      "extension": [ {
        "url": "https://www.medizininformatik-initiative.de/fhir/ext/modul-onko/StructureDefinition/mii-ex-onko-operation-intention",
        "valueCodeableConcept": {
          "coding": [ {
            "system": "https://www.medizininformatik-initiative.de/fhir/ext/modul-onko/CodeSystem/mii-cs-onko-intention",
            "code": "K"
          } ]
        }
      } ],
      "identifier": [ {
        "system": "https://bzkf.github.io/obds-to-fhir/identifiers/operation-procedure-id",
        "value": "295-671.01"
      } ],
      "status": "completed",
      "category": {
        "coding": [ {
          "system": "http://snomed.info/sct",
          "code": "387713003",
          "display": "Surgical procedure"
        } ]
      },
      "code": {
        "coding": [ {
          "system": "http://fhir.de/CodeSystem/bfarm/ops",
          "version": "2022",
          "code": "5-671.01"
        } ]
      },
      "subject": {
        "reference": "Patient/43d8d22e39e073fbb83f221071d60fe92e947d234ada77f7401d0eb4d230a849"
      },
      "performedDateTime": "2022-10-16",
      "reasonReference": [ {
        "reference": "Condition/c65dc4a292a235b7490c12e7e4a869e754b1d3ef6c4f75aacfd828e92ba8e920"
      } ],
      "outcome": {
        "coding": [ {
          "system": "https://www.medizininformatik-initiative.de/fhir/ext/modul-onko/CodeSystem/mii-cs-onko-residualstatus",
          "code": "R0"
        } ]
      }
    },
    "request": {
      "method": "PUT",
      "url": "Procedure/e05a1e24b4ff9a0191bf1ec8ac695cfb0aa7b3556765aa36b9f58d3275704541"
    }
  }, {
    "fullUrl": "Observation/4039fb1c7eb636f48eb37893b683752a6f41e7e05dffc8b12bb3fe8a336d5008",
    "resource": {
      "resourceType": "Observation",
      "id": "4039fb1c7eb636f48eb37893b683752a6f41e7e05dffc8b12bb3fe8a336d5008",
      "identifier": [ {
        "system": "https://bzkf.github.io/obds-to-fhir/identifiers/residualstatus-observation-id",
        "value": "29"
      } ],
      "status": "final",
      "code": {
        "coding": [ {
          "system": "http://loinc.org",
          "code": "84892-9"
        } ]
      },
      "subject": {
        "reference": "Patient/43d8d22e39e073fbb83f221071d60fe92e947d234ada77f7401d0eb4d230a849"
      },
      "focus": [ {
        "reference": "Condition/c65dc4a292a235b7490c12e7e4a869e754b1d3ef6c4f75aacfd828e92ba8e920"
      } ],
      "effectiveDateTime": "2022-10-16",
      "valueCodeableConcept": {
        "coding": [ {
          "system": "https://www.medizininformatik-initiative.de/fhir/ext/modul-onko/CodeSystem/mii-cs-onko-residualstatus",
          "code": "R0"
        } ]
      }
    },
    "request": {
      "method": "PUT",
      "url": "Observation/4039fb1c7eb636f48eb37893b683752a6f41e7e05dffc8b12bb3fe8a336d5008"
    }
  }, {
    "fullUrl": "Specimen/39e80b46672060468b9f2ad9dcf91c0438a1211a87cbafcdb664ac536183a277",
    "resource": {
      "resourceType": "Specimen",
      "id": "39e80b46672060468b9f2ad9dcf91c0438a1211a87cbafcdb664ac536183a277",
      "meta": {
        "profile": [ "https://www.medizininformatik-initiative.de/fhir/ext/modul-onko/StructureDefinition/mii-pr-onko-specimen" ]
      },
      "identifier": [ {
        "system": "https://bzkf.github.io/obds-to-fhir/identifiers/specimen-id",
        "value": "54"
      } ],
      "accessionIdentifier": {
        "value": "X/98765/2"
      },
      "subject": {
        "reference": "Patient/43d8d22e39e073fbb83f221071d60fe92e947d234ada77f7401d0eb4d230a849"
      },
      "collection": {
        "collectedDateTime": "2022-10-16"
      }
    },
    "request": {
      "method": "PUT",
      "url": "Specimen/39e80b46672060468b9f2ad9dcf91c0438a1211a87cbafcdb664ac536183a277"
    }
  }, {
    "fullUrl": "Observation/5acb936889811e9dfdd58e8890670d739bee329c50bc03c08e40df2761fe0820",
    "resource": {
      "resourceType": "Observation",
      "id": "5acb936889811e9dfdd58e8890670d739bee329c50bc03c08e40df2761fe0820",
      "meta": {
        "profile": [ "https://www.medizininformatik-initiative.de/fhir/ext/modul-onko/StructureDefinition/mii-pr-onko-histologie-icdo3" ]
      },
      "identifier": [ {
        "system": "https://bzkf.github.io/obds-to-fhir/identifiers/observation-histologie-id",
        "value": "54-ICDO3-8077/2"
      } ],
      "status": "final",
      "code": {
        "coding": [ {
          "system": "http://loinc.org",
          "code": "59847-4"
        } ]
      },
      "subject": {
        "reference": "Patient/43d8d22e39e073fbb83f221071d60fe92e947d234ada77f7401d0eb4d230a849"
      },
      "focus": [ {
        "reference": "Condition/c65dc4a292a235b7490c12e7e4a869e754b1d3ef6c4f75aacfd828e92ba8e920"
      } ],
      "effectiveDateTime": "2022-10-16",
      "valueCodeableConcept": {
        "coding": [ {
          "system": "http://terminology.hl7.org/CodeSystem/icd-o-3",
          "version": "33",
          "code": "8077/2"
        } ],
        "text": "Zervikale intraepitheliale Neoplasie Grad 3"
      },
      "specimen": {
        "reference": "Specimen/39e80b46672060468b9f2ad9dcf91c0438a1211a87cbafcdb664ac536183a277"
      }
    },
    "request": {
      "method": "PUT",
      "url": "Observation/5acb936889811e9dfdd58e8890670d739bee329c50bc03c08e40df2761fe0820"
    }
  }, {
    "fullUrl": "Observation/0c3247797f283c23fed499dffafc570fbdb6787d732ce735fc6aeb18ed8ab3b8",
    "resource": {
      "resourceType": "Observation",
      "id": "0c3247797f283c23fed499dffafc570fbdb6787d732ce735fc6aeb18ed8ab3b8",
      "meta": {
        "profile": [ "https://www.medizininformatik-initiative.de/fhir/ext/modul-onko/StructureDefinition/mii-pr-onko-grading" ]
      },
      "identifier": [ {
        "system": "https://bzkf.github.io/obds-to-fhir/identifiers/grading-observation-id",
        "value": "54-grading"
      } ],
      "status": "final",
      "category": [ {
        "coding": [ {
          "system": "http://terminology.hl7.org/CodeSystem/observation-category",
          "code": "laboratory"
        } ]
      } ],
      "code": {
        "coding": [ {
          "system": "http://loinc.org",
          "code": "33732-9"
        }, {
          "system": "http://snomed.info/sct",
          "code": "371469007"
        } ]
      },
      "subject": {
        "reference": "Patient/43d8d22e39e073fbb83f221071d60fe92e947d234ada77f7401d0eb4d230a849"
      },
      "focus": [ {
        "reference": "Condition/c65dc4a292a235b7490c12e7e4a869e754b1d3ef6c4f75aacfd828e92ba8e920"
      } ],
      "effectiveDateTime": "2022-10-16",
      "valueCodeableConcept": {
        "coding": [ {
          "system": "https://www.medizininformatik-initiative.de/fhir/ext/modul-onko/CodeSystem/mii-cs-onko-grading",
          "code": "3"
        } ]
      },
      "specimen": {
        "reference": "Specimen/39e80b46672060468b9f2ad9dcf91c0438a1211a87cbafcdb664ac536183a277"
      }
    },
    "request": {
      "method": "PUT",
      "url": "Observation/0c3247797f283c23fed499dffafc570fbdb6787d732ce735fc6aeb18ed8ab3b8"
    }
  }, {
    "fullUrl": "Observation/356510b4071f5865a21c999d0febeb5d4b331ccf2c7b102b43865187a4a1be35",
    "resource": {
      "resourceType": "Observation",
      "id": "356510b4071f5865a21c999d0febeb5d4b331ccf2c7b102b43865187a4a1be35",
      "meta": {
        "profile": [ "https://www.medizininformatik-initiative.de/fhir/ext/modul-onko/StructureDefinition/mii-pr-onko-tnm-t-kategorie" ]
      },
      "identifier": [ {
        "system": "https://bzkf.github.io/obds-to-fhir/identifiers/tnm-t-kategorie-observation-id",
        "value": "49_T"
      } ],
      "status": "final",
      "code": {
        "extension": [ {
          "url": "https://www.medizininformatik-initiative.de/fhir/ext/modul-onko/StructureDefinition/mii-ex-onko-tnm-cp-praefix",
          "valueCodeableConcept": {
            "coding": [ {
              "system": "https://www.uicc.org/resources/tnm",
              "code": "p"
            } ]
          }
        } ],
        "coding": [ {
          "system": "http://snomed.info/sct",
          "code": "384625004",
          "display": "pT category (observable entity)"
        } ]
      },
      "subject": {
        "reference": "Patient/43d8d22e39e073fbb83f221071d60fe92e947d234ada77f7401d0eb4d230a849"
      },
      "focus": [ {
        "reference": "Condition/c65dc4a292a235b7490c12e7e4a869e754b1d3ef6c4f75aacfd828e92ba8e920"
      } ],
      "effectiveDateTime": "2022-10-16",
      "valueCodeableConcept": {
        "coding": [ {
          "system": "https://www.uicc.org/resources/tnm",
          "code": "Tis"
        } ]
      },
      "method": {
        "coding": [ {
          "system": "https://www.medizininformatik-initiative.de/fhir/ext/modul-onko/CodeSystem/mii-cs-onko-tnm-version",
          "code": "8"
        } ]
      }
    },
    "request": {
      "method": "PUT",
      "url": "Observation/356510b4071f5865a21c999d0febeb5d4b331ccf2c7b102b43865187a4a1be35"
    }
  }, {
    "fullUrl": "Observation/c77f4341767d48873aad119527c2496cfe5ce208358282670d688347aaa8edc7",
    "resource": {
      "resourceType": "Observation",
      "id": "c77f4341767d48873aad119527c2496cfe5ce208358282670d688347aaa8edc7",
      "meta": {
        "profile": [ "https://www.medizininformatik-initiative.de/fhir/ext/modul-onko/StructureDefinition/mii-pr-onko-tnm-klassifikation" ]
      },
      "identifier": [ {
        "system": "https://bzkf.github.io/obds-to-fhir/identifiers/tnm-grouping-observation-id",
        "value": "49"
      } ],
      "status": "final",
      "code": {
        "coding": [ {
          "system": "http://snomed.info/sct",
          "code": "399390009",
          "display": "TNM stage grouping"
        } ]
      },
      "subject": {
        "reference": "Patient/43d8d22e39e073fbb83f221071d60fe92e947d234ada77f7401d0eb4d230a849"
      },
      "focus": [ {
        "reference": "Condition/c65dc4a292a235b7490c12e7e4a869e754b1d3ef6c4f75aacfd828e92ba8e920"
      } ],
      "effectiveDateTime": "2022-10-16",
      "valueCodeableConcept": {
        "coding": [ {
          "system": "https://www.uicc.org/resources/tnm",
          "code": "0",
          "display": "Stadium 0"
        } ]
      },
      "method": {
        "coding": [ {
          "system": "https://www.medizininformatik-initiative.de/fhir/ext/modul-onko/CodeSystem/mii-cs-onko-tnm-version",
          "code": "8"
        } ]
      },
      "hasMember": [ {
        "reference": "Observation/356510b4071f5865a21c999d0febeb5d4b331ccf2c7b102b43865187a4a1be35"
      } ]
    },
    "request": {
      "method": "PUT",
      "url": "Observation/c77f4341767d48873aad119527c2496cfe5ce208358282670d688347aaa8edc7"
    }
  } ]
}