{
  "resourceType": "Bundle",
  "id": "6f5a4631aa1afa9fb3b290f6bb86163ea01f9b24bd1170e5d79a0c36995c2c57",
  "type": "transaction",
  "entry": [ {
    "fullUrl": "Patient/6f5a4631aa1afa9fb3b290f6bb86163ea01f9b24bd1170e5d79a0c36995c2c57",
    "resource": {
      "resourceType": "Patient",
      "id": "6f5a4631aa1afa9fb3b290f6bb86163ea01f9b24bd1170e5d79a0c36995c2c57",
      "meta": {
        "profile": [ "https://www.medizininformatik-initiative.de/fhir/core/modul-person/StructureDefinition/PatientPseudonymisiert" ]
      },
      "identifier": [ {
        "type": {
          "coding": [ {
            "system": "http://terminology.hl7.org/CodeSystem/v2-0203",
            "code": "MR",
            "display": "Medical record number"
          }, {
            "system": "http://terminology.hl7.org/CodeSystem/v3-ObservationValue",
            "code": "PSEUDED",
            "display": "pseudonymized"
          } ]
        },
        "system": "https://bzkf.github.io/obds-to-fhir/identifiers/patient-id",
        "value": "12"
      } ],
      "gender": "female",
      "birthDate": "1953-07-21",
      "address": [ {
        "type": "both",
        "postalCode": "00000",
        "country": "DE"
      } ]
    },
    "request": {
      "method": "PUT",
      "url": "Patient/6f5a4631aa1afa9fb3b290f6bb86163ea01f9b24bd1170e5d79a0c36995c2c57"
    }
  }, {
    "fullUrl": "Condition/ada766c1f2eea7625dc4d9bac33d99d0f2a3606376cfa0798fa7c839be6f1e16",
    "resource": {
      "resourceType": "Condition",
      "id": "ada766c1f2eea7625dc4d9bac33d99d0f2a3606376cfa0798fa7c839be6f1e16",
      "meta": {
        "profile": [ "https://www.medizininformatik-initiative.de/fhir/ext/modul-onko/StructureDefinition/mii-pr-onko-diagnose-primaertumor" ]
      },
      "extension": [ {
        "url": "https://www.medizininformatik-initiative.de/fhir/ext/modul-onko/StructureDefinition/mii-ex-onko-histology-morphology-behavior-icdo3",
        "valueCodeableConcept": {
          "coding": [ {
            "system": "http://terminology.hl7.org/CodeSystem/icd-o-3",
            "version": "32",
            "code": "8461/3"
          } ]
        }
      }, {
        "url": "http://hl7.org/fhir/StructureDefinition/condition-assertedDate",
        "valueDateTime": "2017-07-02"
      } ],
      "identifier": [ {
        "system": "https://bzkf.github.io/obds-to-fhir/identifiers/primaerdiagnose-id",
        "value": "121"
      } ],
      "verificationStatus": {
        "coding": [ {
          "system": "http://terminology.hl7.org/CodeSystem/condition-ver-status",
          "code": "confirmed"
        }, {
          "system": "https://www.medizininformatik-initiative.de/fhir/ext/modul-onko/CodeSystem/mii-cs-onko-primaertumor-diagnosesicherung",
          "code": "7"
        } ]
      },
      "code": {
        "coding": [ {
          "system": "http://fhir.de/CodeSystem/bfarm/icd-10-gm",
          "version": "2017",
          "code": "C56"
        } ]
      },
      "bodySite": [ {
        "coding": [ {
          "system": "http://terminology.hl7.org/CodeSystem/icd-o-3",
          "version": "32",
          "code": "C56.9"
        } ]
      }, {
        "coding": [ {
          "system": "https://www.medizininformatik-initiative.de/fhir/ext/modul-onko/CodeSystem/mii-cs-onko-seitenlokalisation",
          "code": "T"
        } ]
      } ],
      "subject": {
        "reference": "Patient/6f5a4631aa1afa9fb3b290f6bb86163ea01f9b24bd1170e5d79a0c36995c2c57"
      },
      "recordedDate": "2024-02-16"
    },
    "request": {
      "method": "PUT",
      "url": "Condition/ada766c1f2eea7625dc4d9bac33d99d0f2a3606376cfa0798fa7c839be6f1e16"
    }
  }, {
    "fullUrl": "Observation/66d516595ce02c44d0a0a4468e65f29af40fea407465cacaea88f617e37d2ac4",
    "resource": {
      "resourceType": "Observation",
      "id": "66d516595ce02c44d0a0a4468e65f29af40fea407465cacaea88f617e37d2ac4",
      "meta": {
        "profile": [ "https://www.medizininformatik-initiative.de/fhir/ext/modul-onko/StructureDefinition/mii-pr-onko-allgemeiner-leistungszustand-ecog" ]
      },
      "identifier": [ {
        "system": "https://bzkf.github.io/obds-to-fhir/identifiers/allgemeiner-leistungszustand-ecog-id",
        "value": "ECOG-12_1_DI-1"
      } ],
      "status": "final",
      "code": {
        "coding": [ {
          "system": "http://snomed.info/sct",
          "code": "423740007"
        } ]
      },
      "subject": {
        "reference": "Patient/6f5a4631aa1afa9fb3b290f6bb86163ea01f9b24bd1170e5d79a0c36995c2c57"
      },
      "focus": [ {
        "reference": "Condition/ada766c1f2eea7625dc4d9bac33d99d0f2a3606376cfa0798fa7c839be6f1e16"
      } ],
      "effectiveDateTime": "2017-07-02",
      "valueCodeableConcept": {
        "coding": [ {
          "system": "https://www.medizininformatik-initiative.de/fhir/ext/modul-onko/CodeSystem/mii-cs-onko-allgemeiner-leistungszustand-ecog",
          "code": "1",
          "display": "Einschränkung bei körperlicher Anstrengung, aber gehfähig; leichte körperliche Arbeit bzw. Arbeit im Sitzen (z. B. leichte Hausarbeit oder Büroarbeit) möglich (70 - 80 % nach Karnofsky)"
        } ]
      }
    },
    "request": {
      "method": "PUT",
      "url": "Observation/66d516595ce02c44d0a0a4468e65f29af40fea407465cacaea88f617e37d2ac4"
    }
  }, {
    "fullUrl": "Procedure/e722bcc3a86e05e00a0fe5566607b4293be976500750ed2de2f48280b7fba359",
    "resource": {
      "resourceType": "Procedure",
      "id": "e722bcc3a86e05e00a0fe5566607b4293be976500750ed2de2f48280b7fba359",
      "meta": {
        "profile": [ "https://www.medizininformatik-initiative.de/fhir/ext/modul-onko/StructureDefinition/mii-pr-onko-systemische-therapie" ]
      },
      "extension": [ {
        "url": "https://www.medizininformatik-initiative.de/fhir/ext/modul-onko/StructureDefinition/mii-ex-onko-systemische-therapie-intention",
        "valueCodeableConcept": {
          "coding": [ {
            "system": "https://www.medizininformatik-initiative.de/fhir/ext/modul-onko/CodeSystem/mii-cs-onko-intention",
            "code": "P"
          } ]
        }
      } ],
      "identifier": [ {
        "system": "https://bzkf.github.io/obds-to-fhir/identifiers/systemische-therapie-procedure-id",
        "value": "12_1_Innere.1"
      } ],
      "status": "in-progress",
      "category": {
        "coding": [ {
          "system": "http://snomed.info/sct",
          "code": "18629005"
        } ]
      },
      "code": {
        "coding": [ {
          "system": "http://fhir.de/CodeSystem/bfarm/ops",
          "code": "8-54"
        }, {
          "system": "https://www.medizininformatik-initiative.de/fhir/ext/modul-onko/CodeSystem/mii-cs-onko-therapie-typ",
          "code": "CH"
        } ]
      },
      "subject": {
        "reference": "Patient/6f5a4631aa1afa9fb3b290f6bb86163ea01f9b24bd1170e5d79a0c36995c2c57"
      },
      "performedPeriod": {
        "start": "2018-03-17"
      }
    },
    "request": {
      "method": "PUT",
      "url": "Procedure/e722bcc3a86e05e00a0fe5566607b4293be976500750ed2de2f48280b7fba359"
    }
  }, {
    "fullUrl": "MedicationStatement/da9d78a5d066bba6acd32a9a903c8663ecc1421cb373dcb51566b6d23dd30df7",
    "resource": {
      "resourceType": "MedicationStatement",
      "id": "da9d78a5d066bba6acd32a9a903c8663ecc1421cb373dcb51566b6d23dd30df7",
      "meta": {
        "profile": [ "https://www.medizininformatik-initiative.de/fhir/core/modul-medikation/StructureDefinition/MedicationStatement" ]
      },
      "identifier": [ {
        "system": "https://bzkf.github.io/obds-to-fhir/identifiers/systemische-therapie-medication-statement-id",
        "value": "12_1_Innere.1_Paclitaxel_a0a4"
      } ],
      "partOf": [ {
        "reference": "Procedure/e722bcc3a86e05e00a0fe5566607b4293be976500750ed2de2f48280b7fba359"
      } ],
      "status": "active",
      "medicationCodeableConcept": {
        "text": "Paclitaxel"
      },
      "subject": {
        "reference": "Patient/6f5a4631aa1afa9fb3b290f6bb86163ea01f9b24bd1170e5d79a0c36995c2c57"
      },
      "effectivePeriod": {
        "start": "2018-03-17"
      }
    },
    "request": {
      "method": "PUT",
      "url": "MedicationStatement/da9d78a5d066bba6acd32a9a903c8663ecc1421cb373dcb51566b6d23dd30df7"
    }
  }, {
    "fullUrl": "Procedure/eb50819015978eaa445c1a6553dfee33010b305162808c044e7a667293050216",
    "resource": {
      "resourceType": "Procedure",
      "id": "eb50819015978eaa445c1a6553dfee33010b305162808c044e7a667293050216",
      "meta": {
        "profile": [ "https://www.medizininformatik-initiative.de/fhir/ext/modul-onko/StructureDefinition/mii-pr-onko-strahlentherapie" ]
      },
      "extension": [ {
        "url": "https://www.medizininformatik-initiative.de/fhir/ext/modul-onko/StructureDefinition/mii-ex-onko-strahlentherapie-intention",
        "valueCodeableConcept": {
          "coding": [ {
            "system": "https://www.medizininformatik-initiative.de/fhir/ext/modul-onko/CodeSystem/mii-cs-onko-intention",
            "code": "P"
          } ]
        }
      }, {
        "url": "https://www.medizininformatik-initiative.de/fhir/ext/modul-onko/StructureDefinition/mii-ex-onko-strahlentherapie-bestrahlung",
        "extension": [ {
          "url": "Applikationsart",
          "valueCodeableConcept": {
            "coding": [ {
              "system": "https://www.medizininformatik-initiative.de/fhir/ext/modul-onko/CodeSystem/mii-cs-onko-strahlentherapie-applikationsart",
              "code": "P-ST"
            } ]
          }
        }, {
          "url": "Strahlenart",
          "valueCodeableConcept": {
            "coding": [ {
              "system": "https://www.medizininformatik-initiative.de/fhir/ext/modul-onko/CodeSystem/mii-cs-onko-strahlentherapie-strahlenart",
              "code": "UH"
            } ]
          }
        }, {
          "url": "Zielgebiet",
          "valueCodeableConcept": {
            "coding": [ {
              "system": "https://www.medizininformatik-initiative.de/fhir/ext/modul-onko/CodeSystem/mii-cs-onko-strahlentherapie-zielgebiet",
              "code": "3.4"
            } ]
          }
        } ]
      } ],
      "identifier": [ {
        "system": "https://bzkf.github.io/obds-to-fhir/identifiers/strahlentherapie-procedure-id",
        "value": "12_1_Strahlen.1"
      } ],
      "status": "in-progress",
      "category": {
        "coding": [ {
          "system": "http://snomed.info/sct",
          "code": "277132007",
          "display": "Therapeutic procedure"
        } ]
      },
      "code": {
        "coding": [ {
          "system": "http://fhir.de/CodeSystem/bfarm/ops",
          "_code": {
            "extension": [ {
              "url": "http://hl7.org/fhir/StructureDefinition/data-absent-reason",
              "valueCode": "unknown"
            } ]
          }
        } ]
      },
      "subject": {
        "reference": "Patient/6f5a4631aa1afa9fb3b290f6bb86163ea01f9b24bd1170e5d79a0c36995c2c57"
      },
      "performedPeriod": {
        "_start": {
          "extension": [ {
            "url": "http://hl7.org/fhir/StructureDefinition/data-absent-reason",
            "valueCode": "unknown"
          } ]
        }
      }
    },
    "request": {
      "method": "PUT",
      "url": "Procedure/eb50819015978eaa445c1a6553dfee33010b305162808c044e7a667293050216"
    }
  } ]
}
