{
  "resourceType": "Bundle",
  "id": "43d8d22e39e073fbb83f221071d60fe92e947d234ada77f7401d0eb4d230a849",
  "type": "transaction",
  "entry": [ {
    "fullUrl": "Patient/43d8d22e39e073fbb83f221071d60fe92e947d234ada77f7401d0eb4d230a849",
    "resource": {
      "resourceType": "Patient",
      "id": "43d8d22e39e073fbb83f221071d60fe92e947d234ada77f7401d0eb4d230a849",
      "meta": {
        "profile": [ "https://www.medizininformatik-initiative.de/fhir/core/modul-person/StructureDefinition/PatientPseudonymisiert" ]
      },
      "identifier": [ {
        "type": {
          "coding": [ {
            "system": "http://terminology.hl7.org/CodeSystem/v2-0203",
            "code": "MR",
            "display": "Medical record number"
          }, {
            "system": "http://terminology.hl7.org/CodeSystem/v3-ObservationValue",
            "code": "PSEUDED",
            "display": "pseudonymized"
          } ]
        },
        "system": "https://bzkf.github.io/obds-to-fhir/identifiers/patient-id",
        "value": "19"
      } ],
      "gender": "female",
      "birthDate": "1950-05-01",
      "address": [ {
        "type": "both",
        "postalCode": "12345",
        "country": "DE"
      } ]
    },
    "request": {
      "method": "PUT",
      "url": "Patient/43d8d22e39e073fbb83f221071d60fe92e947d234ada77f7401d0eb4d230a849"
    }
  }, {
    "fullUrl": "Condition/c65dc4a292a235b7490c12e7e4a869e754b1d3ef6c4f75aacfd828e92ba8e920",
    "resource": {
      "resourceType": "Condition",
      "id": "c65dc4a292a235b7490c12e7e4a869e754b1d3ef6c4f75aacfd828e92ba8e920",
      "meta": {
        "profile": [ "https://www.medizininformatik-initiative.de/fhir/ext/modul-onko/StructureDefinition/mii-pr-onko-diagnose-primaertumor" ]
      },
      "extension": [ {
        "url": "https://www.medizininformatik-initiative.de/fhir/ext/modul-onko/StructureDefinition/mii-ex-onko-histology-morphology-behavior-icdo3",
        "valueCodeableConcept": {
          "coding": [ {
            "system": "http://terminology.hl7.org/CodeSystem/icd-o-3",
            "version": "33",
            "code": "8077/2"
          } ]
        }
      }, {
        "url": "http://hl7.org/fhir/StructureDefinition/condition-assertedDate",
        "valueDateTime": "2022-10-02"
      } ],
      "identifier": [ {
        "system": "https://bzkf.github.io/obds-to-fhir/identifiers/primaerdiagnose-id",
        "value": "195"
      } ],
      "verificationStatus": {
        "coding": [ {
          "system": "http://terminology.hl7.org/CodeSystem/condition-ver-status",
          "code": "confirmed"
        }, {
          "system": "https://www.medizininformatik-initiative.de/fhir/ext/modul-onko/CodeSystem/mii-cs-onko-primaertumor-diagnosesicherung",
          "code": "5"
        } ]
      },
      "code": {
        "coding": [ {
          "system": "http://fhir.de/CodeSystem/bfarm/icd-10-gm",
          "version": "2022",
          "code": "D06.9"
        } ]
      },
      "bodySite": [ {
        "coding": [ {
          "system": "http://terminology.hl7.org/CodeSystem/icd-o-3",
          "version": "33",
          "code": "C53.9"
        } ]
      }, {
        "coding": [ {
          "system": "https://www.medizininformatik-initiative.de/fhir/ext/modul-onko/CodeSystem/mii-cs-onko-seitenlokalisation",
          "code": "T"
        } ]
      } ],
      "subject": {
        "reference": "Patient/43d8d22e39e073fbb83f221071d60fe92e947d234ada77f7401d0eb4d230a849"
      },
      "recordedDate": "2024-04-22"
    },
    "request": {
      "method": "PUT",
      "url": "Condition/c65dc4a292a235b7490c12e7e4a869e754b1d3ef6c4f75aacfd828e92ba8e920"
    }
  }, {
    "fullUrl": "Observation/ee9229bfb55adfac28d31404e6774949fe5f9e3e9f3a3a7c6c0e987a1e192d62",
    "resource": {
      "resourceType": "Observation",
      "id": "ee9229bfb55adfac28d31404e6774949fe5f9e3e9f3a3a7c6c0e987a1e192d62",
      "meta": {
        "profile": [ "https://www.medizininformatik-initiative.de/fhir/ext/modul-onko/StructureDefinition/mii-pr-onko-allgemeiner-leistungszustand-ecog" ]
      },
      "identifier": [ {
        "system": "https://bzkf.github.io/obds-to-fhir/identifiers/allgemeiner-leistungszustand-ecog-id",
        "value": "ECOG-10_5_DI_1"
      } ],
      "status": "final",
      "code": {
        "coding": [ {
          "system": "http://snomed.info/sct",
          "code": "423740007"
        } ]
      },
      "subject": {
        "reference": "Patient/43d8d22e39e073fbb83f221071d60fe92e947d234ada77f7401d0eb4d230a849"
      },
      "focus": [ {
        "reference": "Condition/c65dc4a292a235b7490c12e7e4a869e754b1d3ef6c4f75aacfd828e92ba8e920"
      } ],
      "effectiveDateTime": "2022-10-02",
      "valueCodeableConcept": {
        "coding": [ {
          "system": "https://www.medizininformatik-initiative.de/fhir/ext/modul-onko/CodeSystem/mii-cs-onko-allgemeiner-leistungszustand-ecog",
          "code": "0",
          "display": "Normale, uneingeschränkte Aktivität wie vor der Erkrankung (90 - 100 % nach Karnofsky)"
        } ]
      }
    },
    "request": {
      "method": "PUT",
      "url": "Observation/ee9229bfb55adfac28d31404e6774949fe5f9e3e9f3a3a7c6c0e987a1e192d62"
    }
  }, {
    "fullUrl": "Specimen/ce77359a50c9005ab6053fa70782271998c8310b83965837f65b5b0a5cece9bc",
    "resource": {
      "resourceType": "Specimen",
      "id": "ce77359a50c9005ab6053fa70782271998c8310b83965837f65b5b0a5cece9bc",
      "meta": {
        "profile": [ "https://www.medizininformatik-initiative.de/fhir/ext/modul-onko/StructureDefinition/mii-pr-onko-specimen" ]
      },
      "identifier": [ {
        "system": "https://bzkf.github.io/obds-to-fhir/identifiers/specimen-id",
        "value": "53"
      } ],
      "accessionIdentifier": {
        "value": "X/98765/1"
      },
      "subject": {
        "reference": "Patient/43d8d22e39e073fbb83f221071d60fe92e947d234ada77f7401d0eb4d230a849"
      },
      "collection": {
        "collectedDateTime": "2022-10-03"
      }
    },
    "request": {
      "method": "PUT",
      "url": "Specimen/ce77359a50c9005ab6053fa70782271998c8310b83965837f65b5b0a5cece9bc"
    }
  }, {
    "fullUrl": "Observation/5f34e681144389211d768c6f07c30be1d6fabaadac362ebcdb2958a84dc4fe77",
    "resource": {
      "resourceType": "Observation",
      "id": "5f34e681144389211d768c6f07c30be1d6fabaadac362ebcdb2958a84dc4fe77",
      "meta": {
        "profile": [ "https://www.medizininformatik-initiative.de/fhir/ext/modul-onko/StructureDefinition/mii-pr-onko-histologie-icdo3" ]
      },
      "identifier": [ {
        "system": "https://bzkf.github.io/obds-to-fhir/identifiers/observation-histologie-id",
        "value": "53_ICDO3_8077/2"
      } ],
      "status": "final",
      "code": {
        "coding": [ {
          "system": "http://loinc.org",
          "code": "59847-4"
        } ]
      },
      "subject": {
        "reference": "Patient/43d8d22e39e073fbb83f221071d60fe92e947d234ada77f7401d0eb4d230a849"
      },
      "focus": [ {
        "reference": "Condition/c65dc4a292a235b7490c12e7e4a869e754b1d3ef6c4f75aacfd828e92ba8e920"
      } ],
      "effectiveDateTime": "2022-10-03",
      "valueCodeableConcept": {
        "coding": [ {
          "system": "http://terminology.hl7.org/CodeSystem/icd-o-3",
          "version": "33",
          "code": "8077/2"
        } ],
        "text": "Zervikale intraepitheliale Neoplasie Grad 3"
      },
      "specimen": {
        "reference": "Specimen/ce77359a50c9005ab6053fa70782271998c8310b83965837f65b5b0a5cece9bc"
      }
    },
    "request": {
      "method": "PUT",
      "url": "Observation/5f34e681144389211d768c6f07c30be1d6fabaadac362ebcdb2958a84dc4fe77"
    }
  }, {
    "fullUrl": "Observation/5873f0e08592b0c835eafe6ca838bbacd48b8a6cf651c42b10207022f51ab977",
    "resource": {
      "resourceType": "Observation",
      "id": "5873f0e08592b0c835eafe6ca838bbacd48b8a6cf651c42b10207022f51ab977",
      "meta": {
        "profile": [ "https://www.medizininformatik-initiative.de/fhir/ext/modul-onko/StructureDefinition/mii-pr-onko-grading" ]
      },
      "identifier": [ {
        "system": "https://bzkf.github.io/obds-to-fhir/identifiers/grading-observation-id",
        "value": "53_Grading"
      } ],
      "status": "final",
      "category": [ {
        "coding": [ {
          "system": "http://terminology.hl7.org/CodeSystem/observation-category",
          "code": "laboratory"
        } ]
      } ],
      "code": {
        "coding": [ {
          "system": "http://loinc.org",
          "code": "33732-9"
        }, {
          "system": "http://snomed.info/sct",
          "code": "371469007"
        } ]
      },
      "subject": {
        "reference": "Patient/43d8d22e39e073fbb83f221071d60fe92e947d234ada77f7401d0eb4d230a849"
      },
      "focus": [ {
        "reference": "Condition/c65dc4a292a235b7490c12e7e4a869e754b1d3ef6c4f75aacfd828e92ba8e920"
      } ],
      "effectiveDateTime": "2022-10-03",
      "valueCodeableConcept": {
        "coding": [ {
          "system": "https://www.medizininformatik-initiative.de/fhir/ext/modul-onko/CodeSystem/mii-cs-onko-grading",
          "code": "3"
        } ]
      },
      "specimen": {
        "reference": "Specimen/ce77359a50c9005ab6053fa70782271998c8310b83965837f65b5b0a5cece9bc"
      }
    },
    "request": {
      "method": "PUT",
      "url": "Observation/5873f0e08592b0c835eafe6ca838bbacd48b8a6cf651c42b10207022f51ab977"
    }
  }, {
    "fullUrl": "Observation/f188bf42ff1a143c3cf83257db96c935df093c6de96f214d7ce30c74e4ac2912",
    "resource": {
      "resourceType": "Observation",
      "id": "f188bf42ff1a143c3cf83257db96c935df093c6de96f214d7ce30c74e4ac2912",
      "meta": {
        "profile": [ "https://www.medizininformatik-initiative.de/fhir/ext/modul-onko/StructureDefinition/mii-pr-onko-studienteilnahme" ]
      },
      "identifier": [ {
        "system": "https://bzkf.github.io/obds-to-fhir/identifiers/studienteilnahme-id",
        "value": "10_5_DI_1_Studienteilnahme"
      } ],
      "status": "final",
      "code": {
        "coding": [ {
          "system": "http://snomed.info/sct",
          "code": "709491003",
          "display": "Enrollment in clinical trial (procedure)"
        } ]
      },
      "subject": {
        "reference": "Patient/43d8d22e39e073fbb83f221071d60fe92e947d234ada77f7401d0eb4d230a849"
      },
      "focus": [ {
        "reference": "Condition/c65dc4a292a235b7490c12e7e4a869e754b1d3ef6c4f75aacfd828e92ba8e920"
      } ],
      "valueCodeableConcept": {
        "coding": [ {
          "system": "https://www.medizininformatik-initiative.de/fhir/ext/modul-onko/CodeSystem/mii-cs-onko-studienteilnahme",
          "code": "N"
        } ]
      }
    },
    "request": {
      "method": "PUT",
      "url": "Observation/f188bf42ff1a143c3cf83257db96c935df093c6de96f214d7ce30c74e4ac2912"
    }
  }, {
    "fullUrl": "Observation/50f985f8c30f9d63c8139ae17a42dc3e1a92a226e018256804f0fdf56aea922a",
    "resource": {
      "resourceType": "Observation",
      "id": "50f985f8c30f9d63c8139ae17a42dc3e1a92a226e018256804f0fdf56aea922a",
      "meta": {
        "profile": [ "https://www.medizininformatik-initiative.de/fhir/ext/modul-onko/StructureDefinition/mii-pr-onko-tnm-t-kategorie" ]
      },
      "identifier": [ {
        "system": "47_T",
        "value": "https://bzkf.github.io/obds-to-fhir/identifiers/tnm-t-kategorie-observation-id"
      } ],
      "status": "final",
      "code": {
        "extension": [ {
          "url": "https://www.medizininformatik-initiative.de/fhir/ext/modul-onko/StructureDefinition/mii-ex-onko-tnm-cp-praefix",
          "valueCodeableConcept": {
            "coding": [ {
              "system": "https://www.uicc.org/resources/tnm",
              "code": "c"
            } ]
          }
        } ],
        "coding": [ {
          "system": "http://snomed.info/sct",
          "code": "399504009",
          "display": "cT category (observable entity)"
        } ]
      },
      "subject": {
        "reference": "Patient/43d8d22e39e073fbb83f221071d60fe92e947d234ada77f7401d0eb4d230a849"
      },
      "focus": [ {
        "reference": "Condition/c65dc4a292a235b7490c12e7e4a869e754b1d3ef6c4f75aacfd828e92ba8e920"
      } ],
      "effectiveDateTime": "2022-10-02",
      "valueCodeableConcept": {
        "coding": [ {
          "system": "https://www.uicc.org/resources/tnm",
          "code": "is"
        } ]
      },
      "method": {
        "coding": [ {
          "system": "https://www.medizininformatik-initiative.de/fhir/ext/modul-onko/CodeSystem/mii-cs-onko-tnm-version",
          "code": "8"
        } ]
      }
    },
    "request": {
      "method": "PUT",
      "url": "Observation/50f985f8c30f9d63c8139ae17a42dc3e1a92a226e018256804f0fdf56aea922a"
    }
  }, {
    "fullUrl": "Observation/ecdda559fbe55cfea7e9ee006543503c46a7ff9989cc2f368155a698c4943ac3",
    "resource": {
      "resourceType": "Observation",
      "id": "ecdda559fbe55cfea7e9ee006543503c46a7ff9989cc2f368155a698c4943ac3",
      "meta": {
        "profile": [ "https://www.medizininformatik-initiative.de/fhir/ext/modul-onko/StructureDefinition/mii-pr-onko-tnm-n-kategorie" ]
      },
      "identifier": [ {
        "system": "47_N",
        "value": "https://bzkf.github.io/obds-to-fhir/identifiers/tnm-n-kategorie-observation-id"
      } ],
      "status": "final",
      "code": {
        "extension": [ {
          "url": "https://www.medizininformatik-initiative.de/fhir/ext/modul-onko/StructureDefinition/mii-ex-onko-tnm-cp-praefix",
          "valueCodeableConcept": {
            "coding": [ {
              "system": "https://www.uicc.org/resources/tnm",
              "code": "c"
            } ]
          }
        } ],
        "coding": [ {
          "system": "http://snomed.info/sct",
          "code": "399534004",
          "display": "cN category (observable entity)"
        } ]
      },
      "subject": {
        "reference": "Patient/43d8d22e39e073fbb83f221071d60fe92e947d234ada77f7401d0eb4d230a849"
      },
      "focus": [ {
        "reference": "Condition/c65dc4a292a235b7490c12e7e4a869e754b1d3ef6c4f75aacfd828e92ba8e920"
      } ],
      "effectiveDateTime": "2022-10-02",
      "valueCodeableConcept": {
        "coding": [ {
          "system": "https://www.uicc.org/resources/tnm",
          "code": "0"
        } ]
      },
      "method": {
        "coding": [ {
          "system": "https://www.medizininformatik-initiative.de/fhir/ext/modul-onko/CodeSystem/mii-cs-onko-tnm-version",
          "code": "8"
        } ]
      }
    },
    "request": {
      "method": "PUT",
      "url": "Observation/ecdda559fbe55cfea7e9ee006543503c46a7ff9989cc2f368155a698c4943ac3"
    }
  }, {
    "fullUrl": "Observation/50376c4174e5c975d4b34cb516f09c5a0b4d9753b2ef3c0cb7dc3e38df01eb8f",
    "resource": {
      "resourceType": "Observation",
      "id": "50376c4174e5c975d4b34cb516f09c5a0b4d9753b2ef3c0cb7dc3e38df01eb8f",
      "meta": {
        "profile": [ "https://www.medizininformatik-initiative.de/fhir/ext/modul-onko/StructureDefinition/mii-pr-onko-tnm-m-kategorie" ]
      },
      "identifier": [ {
        "system": "47_M",
        "value": "https://bzkf.github.io/obds-to-fhir/identifiers/tnm-m-kategorie-observation-id"
      } ],
      "status": "final",
      "code": {
        "extension": [ {
          "url": "https://www.medizininformatik-initiative.de/fhir/ext/modul-onko/StructureDefinition/mii-ex-onko-tnm-cp-praefix",
          "valueCodeableConcept": {
            "coding": [ {
              "system": "https://www.uicc.org/resources/tnm",
              "code": "c"
            } ]
          }
        } ],
        "coding": [ {
          "system": "http://snomed.info/sct",
          "code": "399387003",
          "display": "cM category (observable entity)"
        } ]
      },
      "subject": {
        "reference": "Patient/43d8d22e39e073fbb83f221071d60fe92e947d234ada77f7401d0eb4d230a849"
      },
      "focus": [ {
        "reference": "Condition/c65dc4a292a235b7490c12e7e4a869e754b1d3ef6c4f75aacfd828e92ba8e920"
      } ],
      "effectiveDateTime": "2022-10-02",
      "valueCodeableConcept": {
        "coding": [ {
          "system": "https://www.uicc.org/resources/tnm",
          "code": "0"
        } ]
      },
      "method": {
        "coding": [ {
          "system": "https://www.medizininformatik-initiative.de/fhir/ext/modul-onko/CodeSystem/mii-cs-onko-tnm-version",
          "code": "8"
        } ]
      }
    },
    "request": {
      "method": "PUT",
      "url": "Observation/50376c4174e5c975d4b34cb516f09c5a0b4d9753b2ef3c0cb7dc3e38df01eb8f"
    }
  }, {
    "fullUrl": "Observation/56cfcc38da3fda6048bb41b2b83e757096f7116ef72a6ce6e3bf753b537126ae",
    "resource": {
      "resourceType": "Observation",
      "id": "56cfcc38da3fda6048bb41b2b83e757096f7116ef72a6ce6e3bf753b537126ae",
      "meta": {
        "profile": [ "https://www.medizininformatik-initiative.de/fhir/ext/modul-onko/StructureDefinition/mii-pr-onko-tnm-klassifikation" ]
      },
      "identifier": [ {
        "system": "https://bzkf.github.io/obds-to-fhir/identifiers/tnm-grouping-observation-id",
        "value": "47"
      } ],
      "status": "final",
      "code": {
        "coding": [ {
          "system": "http://snomed.info/sct",
          "code": "399537006",
          "display": "Clinical TNM stage grouping"
        } ]
      },
      "subject": {
        "reference": "Patient/43d8d22e39e073fbb83f221071d60fe92e947d234ada77f7401d0eb4d230a849"
      },
      "focus": [ {
        "reference": "Condition/c65dc4a292a235b7490c12e7e4a869e754b1d3ef6c4f75aacfd828e92ba8e920"
      } ],
      "effectiveDateTime": "2022-10-02",
      "valueCodeableConcept": {
        "coding": [ {
          "system": "https://www.uicc.org/resources/tnm",
          "code": "0",
          "display": "Stadium 0"
        } ]
      },
      "method": {
        "coding": [ {
          "system": "https://www.medizininformatik-initiative.de/fhir/ext/modul-onko/CodeSystem/mii-cs-onko-tnm-version",
          "code": "8"
        } ]
      },
      "hasMember": [ {
        "reference": "Observation/50f985f8c30f9d63c8139ae17a42dc3e1a92a226e018256804f0fdf56aea922a"
      }, {
        "reference": "Observation/ecdda559fbe55cfea7e9ee006543503c46a7ff9989cc2f368155a698c4943ac3"
      }, {
        "reference": "Observation/50376c4174e5c975d4b34cb516f09c5a0b4d9753b2ef3c0cb7dc3e38df01eb8f"
      } ]
    },
    "request": {
      "method": "PUT",
      "url": "Observation/56cfcc38da3fda6048bb41b2b83e757096f7116ef72a6ce6e3bf753b537126ae"
    }
  }, {
    "fullUrl": "Observation/cb00477167336abe0a8051cf8a68630fa7651f197266c143ee82821a1e38910d",
    "resource": {
      "resourceType": "Observation",
      "id": "cb00477167336abe0a8051cf8a68630fa7651f197266c143ee82821a1e38910d",
      "meta": {
        "profile": [ "https://www.medizininformatik-initiative.de/fhir/ext/modul-onko/StructureDefinition/mii-pr-onko-tnm-t-kategorie" ]
      },
      "identifier": [ {
        "system": "48_T",
        "value": "https://bzkf.github.io/obds-to-fhir/identifiers/tnm-t-kategorie-observation-id"
      } ],
      "status": "final",
      "code": {
        "extension": [ {
          "url": "https://www.medizininformatik-initiative.de/fhir/ext/modul-onko/StructureDefinition/mii-ex-onko-tnm-cp-praefix",
          "valueCodeableConcept": {
            "coding": [ {
              "system": "https://www.uicc.org/resources/tnm",
              "code": "p"
            } ]
          }
        } ],
        "coding": [ {
          "system": "http://snomed.info/sct",
          "code": "384625004",
          "display": "pT category (observable entity)"
        } ]
      },
      "subject": {
        "reference": "Patient/43d8d22e39e073fbb83f221071d60fe92e947d234ada77f7401d0eb4d230a849"
      },
      "focus": [ {
        "reference": "Condition/c65dc4a292a235b7490c12e7e4a869e754b1d3ef6c4f75aacfd828e92ba8e920"
      } ],
      "effectiveDateTime": "2022-10-03",
      "valueCodeableConcept": {
        "coding": [ {
          "system": "https://www.uicc.org/resources/tnm",
          "code": "is"
        } ]
      },
      "method": {
        "coding": [ {
          "system": "https://www.medizininformatik-initiative.de/fhir/ext/modul-onko/CodeSystem/mii-cs-onko-tnm-version",
          "code": "8"
        } ]
      }
    },
    "request": {
      "method": "PUT",
      "url": "Observation/cb00477167336abe0a8051cf8a68630fa7651f197266c143ee82821a1e38910d"
    }
  }, {
    "fullUrl": "Observation/95730b0defe3c0ac23aa3f9dd163660d7bc7c036cf871f448c542e4750fa9789",
    "resource": {
      "resourceType": "Observation",
      "id": "95730b0defe3c0ac23aa3f9dd163660d7bc7c036cf871f448c542e4750fa9789",
      "meta": {
        "profile": [ "https://www.medizininformatik-initiative.de/fhir/ext/modul-onko/StructureDefinition/mii-pr-onko-tnm-n-kategorie" ]
      },
      "identifier": [ {
        "system": "48_N",
        "value": "https://bzkf.github.io/obds-to-fhir/identifiers/tnm-n-kategorie-observation-id"
      } ],
      "status": "final",
      "code": {
        "extension": [ {
          "url": "https://www.medizininformatik-initiative.de/fhir/ext/modul-onko/StructureDefinition/mii-ex-onko-tnm-cp-praefix",
          "valueCodeableConcept": {
            "coding": [ {
              "system": "https://www.uicc.org/resources/tnm",
              "code": "c"
            } ]
          }
        } ],
        "coding": [ {
          "system": "http://snomed.info/sct",
          "code": "399534004",
          "display": "cN category (observable entity)"
        } ]
      },
      "subject": {
        "reference": "Patient/43d8d22e39e073fbb83f221071d60fe92e947d234ada77f7401d0eb4d230a849"
      },
      "focus": [ {
        "reference": "Condition/c65dc4a292a235b7490c12e7e4a869e754b1d3ef6c4f75aacfd828e92ba8e920"
      } ],
      "effectiveDateTime": "2022-10-03",
      "valueCodeableConcept": {
        "coding": [ {
          "system": "https://www.uicc.org/resources/tnm",
          "code": "0"
        } ]
      },
      "method": {
        "coding": [ {
          "system": "https://www.medizininformatik-initiative.de/fhir/ext/modul-onko/CodeSystem/mii-cs-onko-tnm-version",
          "code": "8"
        } ]
      }
    },
    "request": {
      "method": "PUT",
      "url": "Observation/95730b0defe3c0ac23aa3f9dd163660d7bc7c036cf871f448c542e4750fa9789"
    }
  }, {
    "fullUrl": "Observation/96f5503710c514c49f658e113a3af14f58b7f99652d381c0869e49fcf76cb1c2",
    "resource": {
      "resourceType": "Observation",
      "id": "96f5503710c514c49f658e113a3af14f58b7f99652d381c0869e49fcf76cb1c2",
      "meta": {
        "profile": [ "https://www.medizininformatik-initiative.de/fhir/ext/modul-onko/StructureDefinition/mii-pr-onko-tnm-m-kategorie" ]
      },
      "identifier": [ {
        "system": "48_M",
        "value": "https://bzkf.github.io/obds-to-fhir/identifiers/tnm-m-kategorie-observation-id"
      } ],
      "status": "final",
      "code": {
        "extension": [ {
          "url": "https://www.medizininformatik-initiative.de/fhir/ext/modul-onko/StructureDefinition/mii-ex-onko-tnm-cp-praefix",
          "valueCodeableConcept": {
            "coding": [ {
              "system": "https://www.uicc.org/resources/tnm",
              "code": "c"
            } ]
          }
        } ],
        "coding": [ {
          "system": "http://snomed.info/sct",
          "code": "399387003",
          "display": "cM category (observable entity)"
        } ]
      },
      "subject": {
        "reference": "Patient/43d8d22e39e073fbb83f221071d60fe92e947d234ada77f7401d0eb4d230a849"
      },
      "focus": [ {
        "reference": "Condition/c65dc4a292a235b7490c12e7e4a869e754b1d3ef6c4f75aacfd828e92ba8e920"
      } ],
      "effectiveDateTime": "2022-10-03",
      "valueCodeableConcept": {
        "coding": [ {
          "system": "https://www.uicc.org/resources/tnm",
          "code": "0"
        } ]
      },
      "method": {
        "coding": [ {
          "system": "https://www.medizininformatik-initiative.de/fhir/ext/modul-onko/CodeSystem/mii-cs-onko-tnm-version",
          "code": "8"
        } ]
      }
    },
    "request": {
      "method": "PUT",
      "url": "Observation/96f5503710c514c49f658e113a3af14f58b7f99652d381c0869e49fcf76cb1c2"
    }
  }, {
    "fullUrl": "Observation/dabf6ad7a2b19a7957142805181e44862552c700c10b3c328b58c76f28dd738b",
    "resource": {
      "resourceType": "Observation",
      "id": "dabf6ad7a2b19a7957142805181e44862552c700c10b3c328b58c76f28dd738b",
      "meta": {
        "profile": [ "https://www.medizininformatik-initiative.de/fhir/ext/modul-onko/StructureDefinition/mii-pr-onko-tnm-klassifikation" ]
      },
      "identifier": [ {
        "system": "https://bzkf.github.io/obds-to-fhir/identifiers/tnm-grouping-observation-id",
        "value": "48"
      } ],
      "status": "final",
      "code": {
        "coding": [ {
          "system": "http://snomed.info/sct",
          "code": "399588009",
          "display": "Pathologic TNM stage grouping"
        } ]
      },
      "subject": {
        "reference": "Patient/43d8d22e39e073fbb83f221071d60fe92e947d234ada77f7401d0eb4d230a849"
      },
      "focus": [ {
        "reference": "Condition/c65dc4a292a235b7490c12e7e4a869e754b1d3ef6c4f75aacfd828e92ba8e920"
      } ],
      "effectiveDateTime": "2022-10-03",
      "valueCodeableConcept": {
        "coding": [ {
          "system": "https://www.uicc.org/resources/tnm",
          "code": "0",
          "display": "Stadium 0"
        } ]
      },
      "method": {
        "coding": [ {
          "system": "https://www.medizininformatik-initiative.de/fhir/ext/modul-onko/CodeSystem/mii-cs-onko-tnm-version",
          "code": "8"
        } ]
      },
      "hasMember": [ {
        "reference": "Observation/cb00477167336abe0a8051cf8a68630fa7651f197266c143ee82821a1e38910d"
      }, {
        "reference": "Observation/95730b0defe3c0ac23aa3f9dd163660d7bc7c036cf871f448c542e4750fa9789"
      }, {
        "reference": "Observation/96f5503710c514c49f658e113a3af14f58b7f99652d381c0869e49fcf76cb1c2"
      } ]
    },
    "request": {
      "method": "PUT",
      "url": "Observation/dabf6ad7a2b19a7957142805181e44862552c700c10b3c328b58c76f28dd738b"
    }
  }, {
    "fullUrl": "Procedure/e05a1e24b4ff9a0191bf1ec8ac695cfb0aa7b3556765aa36b9f58d3275704541",
    "resource": {
      "resourceType": "Procedure",
      "id": "e05a1e24b4ff9a0191bf1ec8ac695cfb0aa7b3556765aa36b9f58d3275704541",
      "meta": {
        "profile": [ "https://www.medizininformatik-initiative.de/fhir/ext/modul-onko/StructureDefinition/mii-pr-onko-operation" ]
      },
      "extension": [ {
        "url": "https://www.medizininformatik-initiative.de/fhir/ext/modul-onko/StructureDefinition/mii-ex-onko-operation-intention",
        "valueCodeableConcept": {
          "coding": [ {
            "system": "https://www.medizininformatik-initiative.de/fhir/ext/modul-onko/CodeSystem/mii-cs-onko-intention",
            "code": "K"
          } ]
        }
      } ],
      "identifier": [ {
        "system": "https://bzkf.github.io/obds-to-fhir/identifiers/operation-procedure-id",
        "value": "295-671.01"
      } ],
      "status": "completed",
      "category": {
        "coding": [ {
          "system": "http://snomed.info/sct",
          "code": "387713003",
          "display": "Surgical procedure"
        } ]
      },
      "code": {
        "coding": [ {
          "system": "http://fhir.de/CodeSystem/bfarm/ops",
          "version": "2022",
          "code": "5-671.01"
        } ]
      },
      "subject": {
        "reference": "Patient/43d8d22e39e073fbb83f221071d60fe92e947d234ada77f7401d0eb4d230a849"
      },
      "performedDateTime": "2022-10-16",
      "reasonReference": [ {
        "reference": "Condition/c65dc4a292a235b7490c12e7e4a869e754b1d3ef6c4f75aacfd828e92ba8e920"
      } ],
      "outcome": {
        "coding": [ {
          "system": "https://www.medizininformatik-initiative.de/fhir/ext/modul-onko/CodeSystem/mii-cs-onko-residualstatus",
          "code": "R0"
        } ]
      }
    },
    "request": {
      "method": "PUT",
      "url": "Procedure/e05a1e24b4ff9a0191bf1ec8ac695cfb0aa7b3556765aa36b9f58d3275704541"
    }
  }, {
    "fullUrl": "Observation/4039fb1c7eb636f48eb37893b683752a6f41e7e05dffc8b12bb3fe8a336d5008",
    "resource": {
      "resourceType": "Observation",
      "id": "4039fb1c7eb636f48eb37893b683752a6f41e7e05dffc8b12bb3fe8a336d5008",
      "identifier": [ {
        "system": "https://bzkf.github.io/obds-to-fhir/identifiers/residualstatus-observation-id",
        "value": "29"
      } ],
      "status": "final",
      "code": {
        "coding": [ {
          "system": "http://loinc.org",
          "code": "84892-9"
        } ]
      },
      "subject": {
        "reference": "Patient/43d8d22e39e073fbb83f221071d60fe92e947d234ada77f7401d0eb4d230a849"
      },
      "focus": [ {
        "reference": "Condition/c65dc4a292a235b7490c12e7e4a869e754b1d3ef6c4f75aacfd828e92ba8e920"
      } ],
      "effectiveDateTime": "2022-10-16",
      "valueCodeableConcept": {
        "coding": [ {
          "system": "https://www.medizininformatik-initiative.de/fhir/ext/modul-onko/CodeSystem/mii-cs-onko-residualstatus",
          "code": "R0"
        } ]
      }
    },
    "request": {
      "method": "PUT",
      "url": "Observation/4039fb1c7eb636f48eb37893b683752a6f41e7e05dffc8b12bb3fe8a336d5008"
    }
  }, {
    "fullUrl": "Specimen/39e80b46672060468b9f2ad9dcf91c0438a1211a87cbafcdb664ac536183a277",
    "resource": {
      "resourceType": "Specimen",
      "id": "39e80b46672060468b9f2ad9dcf91c0438a1211a87cbafcdb664ac536183a277",
      "meta": {
        "profile": [ "https://www.medizininformatik-initiative.de/fhir/ext/modul-onko/StructureDefinition/mii-pr-onko-specimen" ]
      },
      "identifier": [ {
        "system": "https://bzkf.github.io/obds-to-fhir/identifiers/specimen-id",
        "value": "54"
      } ],
      "accessionIdentifier": {
        "value": "X/98765/2"
      },
      "subject": {
        "reference": "Patient/43d8d22e39e073fbb83f221071d60fe92e947d234ada77f7401d0eb4d230a849"
      },
      "collection": {
        "collectedDateTime": "2022-10-16"
      }
    },
    "request": {
      "method": "PUT",
      "url": "Specimen/39e80b46672060468b9f2ad9dcf91c0438a1211a87cbafcdb664ac536183a277"
    }
  }, {
    "fullUrl": "Observation/e4bc2109c891a7b71f6de755285cd2cb64feac6ced012a0b20c38cae1c9afa03",
    "resource": {
      "resourceType": "Observation",
      "id": "e4bc2109c891a7b71f6de755285cd2cb64feac6ced012a0b20c38cae1c9afa03",
      "meta": {
        "profile": [ "https://www.medizininformatik-initiative.de/fhir/ext/modul-onko/StructureDefinition/mii-pr-onko-histologie-icdo3" ]
      },
      "identifier": [ {
        "system": "https://bzkf.github.io/obds-to-fhir/identifiers/observation-histologie-id",
        "value": "54_ICDO3_8077/2"
      } ],
      "status": "final",
      "code": {
        "coding": [ {
          "system": "http://loinc.org",
          "code": "59847-4"
        } ]
      },
      "subject": {
        "reference": "Patient/43d8d22e39e073fbb83f221071d60fe92e947d234ada77f7401d0eb4d230a849"
      },
      "focus": [ {
        "reference": "Condition/c65dc4a292a235b7490c12e7e4a869e754b1d3ef6c4f75aacfd828e92ba8e920"
      } ],
      "effectiveDateTime": "2022-10-16",
      "valueCodeableConcept": {
        "coding": [ {
          "system": "http://terminology.hl7.org/CodeSystem/icd-o-3",
          "version": "33",
          "code": "8077/2"
        } ],
        "text": "Zervikale intraepitheliale Neoplasie Grad 3"
      },
      "specimen": {
        "reference": "Specimen/39e80b46672060468b9f2ad9dcf91c0438a1211a87cbafcdb664ac536183a277"
      }
    },
    "request": {
      "method": "PUT",
      "url": "Observation/e4bc2109c891a7b71f6de755285cd2cb64feac6ced012a0b20c38cae1c9afa03"
    }
  }, {
    "fullUrl": "Observation/b50583f15cf3d07202efdcc897a7aedde8a7125136f2152f0eaa1adc8a6aaabf",
    "resource": {
      "resourceType": "Observation",
      "id": "b50583f15cf3d07202efdcc897a7aedde8a7125136f2152f0eaa1adc8a6aaabf",
      "meta": {
        "profile": [ "https://www.medizininformatik-initiative.de/fhir/ext/modul-onko/StructureDefinition/mii-pr-onko-grading" ]
      },
      "identifier": [ {
        "system": "https://bzkf.github.io/obds-to-fhir/identifiers/grading-observation-id",
        "value": "54_Grading"
      } ],
      "status": "final",
      "category": [ {
        "coding": [ {
          "system": "http://terminology.hl7.org/CodeSystem/observation-category",
          "code": "laboratory"
        } ]
      } ],
      "code": {
        "coding": [ {
          "system": "http://loinc.org",
          "code": "33732-9"
        }, {
          "system": "http://snomed.info/sct",
          "code": "371469007"
        } ]
      },
      "subject": {
        "reference": "Patient/43d8d22e39e073fbb83f221071d60fe92e947d234ada77f7401d0eb4d230a849"
      },
      "focus": [ {
        "reference": "Condition/c65dc4a292a235b7490c12e7e4a869e754b1d3ef6c4f75aacfd828e92ba8e920"
      } ],
      "effectiveDateTime": "2022-10-16",
      "valueCodeableConcept": {
        "coding": [ {
          "system": "https://www.medizininformatik-initiative.de/fhir/ext/modul-onko/CodeSystem/mii-cs-onko-grading",
          "code": "3"
        } ]
      },
      "specimen": {
        "reference": "Specimen/39e80b46672060468b9f2ad9dcf91c0438a1211a87cbafcdb664ac536183a277"
      }
    },
    "request": {
      "method": "PUT",
      "url": "Observation/b50583f15cf3d07202efdcc897a7aedde8a7125136f2152f0eaa1adc8a6aaabf"
    }
  }, {
    "fullUrl": "Observation/d869e1e43968b5aefa9d7efa2dac369bccbff2445d6ba519f686d6ac7892e6ce",
    "resource": {
      "resourceType": "Observation",
      "id": "d869e1e43968b5aefa9d7efa2dac369bccbff2445d6ba519f686d6ac7892e6ce",
      "meta": {
        "profile": [ "https://www.medizininformatik-initiative.de/fhir/ext/modul-onko/StructureDefinition/mii-pr-onko-tnm-t-kategorie" ]
      },
      "identifier": [ {
        "system": "49_T",
        "value": "https://bzkf.github.io/obds-to-fhir/identifiers/tnm-t-kategorie-observation-id"
      } ],
      "status": "final",
      "code": {
        "extension": [ {
          "url": "https://www.medizininformatik-initiative.de/fhir/ext/modul-onko/StructureDefinition/mii-ex-onko-tnm-cp-praefix",
          "valueCodeableConcept": {
            "coding": [ {
              "system": "https://www.uicc.org/resources/tnm",
              "code": "p"
            } ]
          }
        } ],
        "coding": [ {
          "system": "http://snomed.info/sct",
          "code": "384625004",
          "display": "pT category (observable entity)"
        } ]
      },
      "subject": {
        "reference": "Patient/43d8d22e39e073fbb83f221071d60fe92e947d234ada77f7401d0eb4d230a849"
      },
      "focus": [ {
        "reference": "Condition/c65dc4a292a235b7490c12e7e4a869e754b1d3ef6c4f75aacfd828e92ba8e920"
      } ],
      "effectiveDateTime": "2022-10-16",
      "valueCodeableConcept": {
        "coding": [ {
          "system": "https://www.uicc.org/resources/tnm",
          "code": "is"
        } ]
      },
      "method": {
        "coding": [ {
          "system": "https://www.medizininformatik-initiative.de/fhir/ext/modul-onko/CodeSystem/mii-cs-onko-tnm-version",
          "code": "8"
        } ]
      }
    },
    "request": {
      "method": "PUT",
      "url": "Observation/d869e1e43968b5aefa9d7efa2dac369bccbff2445d6ba519f686d6ac7892e6ce"
    }
  }, {
    "fullUrl": "Observation/c77f4341767d48873aad119527c2496cfe5ce208358282670d688347aaa8edc7",
    "resource": {
      "resourceType": "Observation",
      "id": "c77f4341767d48873aad119527c2496cfe5ce208358282670d688347aaa8edc7",
      "meta": {
        "profile": [ "https://www.medizininformatik-initiative.de/fhir/ext/modul-onko/StructureDefinition/mii-pr-onko-tnm-klassifikation" ]
      },
      "identifier": [ {
        "system": "https://bzkf.github.io/obds-to-fhir/identifiers/tnm-grouping-observation-id",
        "value": "49"
      } ],
      "status": "final",
      "code": {
        "coding": [ {
          "system": "http://snomed.info/sct",
          "code": "399588009",
          "display": "TNM stage grouping"
        } ]
      },
      "subject": {
        "reference": "Patient/43d8d22e39e073fbb83f221071d60fe92e947d234ada77f7401d0eb4d230a849"
      },
      "focus": [ {
        "reference": "Condition/c65dc4a292a235b7490c12e7e4a869e754b1d3ef6c4f75aacfd828e92ba8e920"
      } ],
      "effectiveDateTime": "2022-10-16",
      "valueCodeableConcept": {
        "coding": [ {
          "system": "https://www.uicc.org/resources/tnm",
          "code": "0",
          "display": "Stadium 0"
        } ]
      },
      "method": {
        "coding": [ {
          "system": "https://www.medizininformatik-initiative.de/fhir/ext/modul-onko/CodeSystem/mii-cs-onko-tnm-version",
          "code": "8"
        } ]
      },
      "hasMember": [ {
        "reference": "Observation/d869e1e43968b5aefa9d7efa2dac369bccbff2445d6ba519f686d6ac7892e6ce"
      } ]
    },
    "request": {
      "method": "PUT",
      "url": "Observation/c77f4341767d48873aad119527c2496cfe5ce208358282670d688347aaa8edc7"
    }
  } ]
}