{
  "resourceType": "Bundle",
  "id": "66eab990c3ab4a1dac96eecfa7189a4455b4a4e9d39b1813fa20e17b8cc564d2",
  "type": "transaction",
  "entry": [ {
    "fullUrl": "Patient/66eab990c3ab4a1dac96eecfa7189a4455b4a4e9d39b1813fa20e17b8cc564d2",
    "resource": {
      "resourceType": "Patient",
      "id": "66eab990c3ab4a1dac96eecfa7189a4455b4a4e9d39b1813fa20e17b8cc564d2",
      "meta": {
        "profile": [ "https://www.medizininformatik-initiative.de/fhir/core/modul-person/StructureDefinition/PatientPseudonymisiert" ]
      },
      "identifier": [ {
        "type": {
          "coding": [ {
            "system": "http://terminology.hl7.org/CodeSystem/v2-0203",
            "code": "MR",
            "display": "Medical record number"
          }, {
            "system": "http://terminology.hl7.org/CodeSystem/v3-ObservationValue",
            "code": "PSEUDED",
            "display": "pseudonymized"
          } ]
        },
        "system": "https://bzkf.github.io/obds-to-fhir/identifiers/patient-id",
        "value": "30"
      } ],
      "gender": "male",
      "birthDate": "1951-10-15",
      "address": [ {
        "type": "both",
        "postalCode": "35390",
        "country": "DE"
      } ]
    },
    "request": {
      "method": "PUT",
      "url": "Patient/66eab990c3ab4a1dac96eecfa7189a4455b4a4e9d39b1813fa20e17b8cc564d2"
    }
  }, {
    "fullUrl": "Condition/413358315002752adf6281447c5ef51bc9e87334ca2c3476a04b098a42c9b510",
    "resource": {
      "resourceType": "Condition",
      "id": "413358315002752adf6281447c5ef51bc9e87334ca2c3476a04b098a42c9b510",
      "meta": {
        "profile": [ "https://www.medizininformatik-initiative.de/fhir/ext/modul-onko/StructureDefinition/mii-pr-onko-diagnose-primaertumor" ]
      },
      "extension": [ {
        "url": "https://www.medizininformatik-initiative.de/fhir/ext/modul-onko/StructureDefinition/mii-ex-onko-histology-morphology-behavior-icdo3",
        "valueCodeableConcept": {
          "coding": [ {
            "system": "http://terminology.hl7.org/CodeSystem/icd-o-3",
            "version": "31",
            "code": "9823/3"
          } ]
        }
      }, {
        "url": "http://hl7.org/fhir/StructureDefinition/condition-assertedDate",
        "valueDateTime": "2015-04-03"
      } ],
      "identifier": [ {
        "system": "https://bzkf.github.io/obds-to-fhir/identifiers/primaerdiagnose-id",
        "value": "301"
      } ],
      "verificationStatus": {
        "coding": [ {
          "system": "http://terminology.hl7.org/CodeSystem/condition-ver-status",
          "code": "confirmed"
        }, {
          "system": "https://www.medizininformatik-initiative.de/fhir/ext/modul-onko/CodeSystem/mii-cs-onko-primaertumor-diagnosesicherung",
          "code": "7"
        } ]
      },
      "code": {
        "coding": [ {
          "system": "http://fhir.de/CodeSystem/bfarm/icd-10-gm",
          "version": "2020",
          "code": "C91.1"
        } ]
      },
      "bodySite": [ {
        "coding": [ {
          "system": "http://terminology.hl7.org/CodeSystem/icd-o-3",
          "version": "33",
          "code": "C42.1"
        } ]
      }, {
        "coding": [ {
          "system": "https://www.medizininformatik-initiative.de/fhir/ext/modul-onko/CodeSystem/mii-cs-onko-seitenlokalisation",
          "code": "T"
        } ]
      } ],
      "subject": {
        "reference": "Patient/66eab990c3ab4a1dac96eecfa7189a4455b4a4e9d39b1813fa20e17b8cc564d2"
      },
      "recordedDate": "2024-02-16"
    },
    "request": {
      "method": "PUT",
      "url": "Condition/413358315002752adf6281447c5ef51bc9e87334ca2c3476a04b098a42c9b510"
    }
  }, {
    "fullUrl": "Observation/139e56223545fedbb4911f0ddddf852d9fd3459bfc9132989724318b5cbc9f7a",
    "resource": {
      "resourceType": "Observation",
      "id": "139e56223545fedbb4911f0ddddf852d9fd3459bfc9132989724318b5cbc9f7a",
      "meta": {
        "profile": [ "https://www.medizininformatik-initiative.de/fhir/ext/modul-onko/StructureDefinition/mii-pr-onko-allgemeiner-leistungszustand-ecog" ]
      },
      "identifier": [ {
        "system": "https://bzkf.github.io/obds-to-fhir/identifiers/allgemeiner-leistungszustand-ecog-id",
        "value": "ECOG-30_DIA_CLL_01"
      } ],
      "status": "final",
      "code": {
        "coding": [ {
          "system": "http://snomed.info/sct",
          "code": "423740007"
        } ]
      },
      "subject": {
        "reference": "Patient/66eab990c3ab4a1dac96eecfa7189a4455b4a4e9d39b1813fa20e17b8cc564d2"
      },
      "focus": [ {
        "reference": "Condition/413358315002752adf6281447c5ef51bc9e87334ca2c3476a04b098a42c9b510"
      } ],
      "effectiveDateTime": "2015-04-03",
      "valueCodeableConcept": {
        "coding": [ {
          "system": "https://www.medizininformatik-initiative.de/fhir/ext/modul-onko/CodeSystem/mii-cs-onko-allgemeiner-leistungszustand-ecog",
          "code": "0",
          "display": "Normale, uneingeschränkte Aktivität wie vor der Erkrankung (90 - 100 % nach Karnofsky)"
        } ]
      }
    },
    "request": {
      "method": "PUT",
      "url": "Observation/139e56223545fedbb4911f0ddddf852d9fd3459bfc9132989724318b5cbc9f7a"
    }
  }, {
    "fullUrl": "Specimen/cac92d4dc889a2b71271d6018d492914391709a69ac21b6849b849ccc00a2575",
    "resource": {
      "resourceType": "Specimen",
      "id": "cac92d4dc889a2b71271d6018d492914391709a69ac21b6849b849ccc00a2575",
      "meta": {
        "profile": [ "https://www.medizininformatik-initiative.de/fhir/ext/modul-onko/StructureDefinition/mii-pr-onko-specimen" ]
      },
      "identifier": [ {
        "system": "https://bzkf.github.io/obds-to-fhir/identifiers/specimen-id",
        "value": "273"
      } ],
      "accessionIdentifier": {
        "value": "H1234/2015"
      },
      "subject": {
        "reference": "Patient/66eab990c3ab4a1dac96eecfa7189a4455b4a4e9d39b1813fa20e17b8cc564d2"
      },
      "collection": {
        "collectedDateTime": "2015-04-03"
      }
    },
    "request": {
      "method": "PUT",
      "url": "Specimen/cac92d4dc889a2b71271d6018d492914391709a69ac21b6849b849ccc00a2575"
    }
  }, {
    "fullUrl": "Observation/89c7bd5fea9cae902a5af90e22cf8bf17d0a506580efadd6a6e805672c4d2671",
    "resource": {
      "resourceType": "Observation",
      "id": "89c7bd5fea9cae902a5af90e22cf8bf17d0a506580efadd6a6e805672c4d2671",
      "meta": {
        "profile": [ "https://www.medizininformatik-initiative.de/fhir/ext/modul-onko/StructureDefinition/mii-pr-onko-histologie-icdo3" ]
      },
      "identifier": [ {
        "system": "https://bzkf.github.io/obds-to-fhir/identifiers/observation-histologie-id",
        "value": "273-ICDO3-9823/3"
      } ],
      "status": "final",
      "code": {
        "coding": [ {
          "system": "http://loinc.org",
          "code": "59847-4"
        } ]
      },
      "subject": {
        "reference": "Patient/66eab990c3ab4a1dac96eecfa7189a4455b4a4e9d39b1813fa20e17b8cc564d2"
      },
      "focus": [ {
        "reference": "Condition/413358315002752adf6281447c5ef51bc9e87334ca2c3476a04b098a42c9b510"
      } ],
      "effectiveDateTime": "2015-04-03",
      "valueCodeableConcept": {
        "coding": [ {
          "system": "http://terminology.hl7.org/CodeSystem/icd-o-3",
          "version": "33",
          "code": "9823/3"
        } ],
        "text": "Chronisch lymphatische Leukämie"
      },
      "specimen": {
        "reference": "Specimen/cac92d4dc889a2b71271d6018d492914391709a69ac21b6849b849ccc00a2575"
      }
    },
    "request": {
      "method": "PUT",
      "url": "Observation/89c7bd5fea9cae902a5af90e22cf8bf17d0a506580efadd6a6e805672c4d2671"
    }
  }, {
    "fullUrl": "Observation/7f1dfbb42c61b66028d7df0ea50ad1f9e863e9e6d2b98d70528fdbf77cb9bc55",
    "resource": {
      "resourceType": "Observation",
      "id": "7f1dfbb42c61b66028d7df0ea50ad1f9e863e9e6d2b98d70528fdbf77cb9bc55",
      "meta": {
        "profile": [ "https://www.medizininformatik-initiative.de/fhir/ext/modul-onko/StructureDefinition/mii-pr-onko-grading" ]
      },
      "identifier": [ {
        "system": "https://bzkf.github.io/obds-to-fhir/identifiers/grading-observation-id",
        "value": "273-grading"
      } ],
      "status": "final",
      "category": [ {
        "coding": [ {
          "system": "http://terminology.hl7.org/CodeSystem/observation-category",
          "code": "laboratory"
        } ]
      } ],
      "code": {
        "coding": [ {
          "system": "http://loinc.org",
          "code": "33732-9"
        }, {
          "system": "http://snomed.info/sct",
          "code": "371469007"
        } ]
      },
      "subject": {
        "reference": "Patient/66eab990c3ab4a1dac96eecfa7189a4455b4a4e9d39b1813fa20e17b8cc564d2"
      },
      "focus": [ {
        "reference": "Condition/413358315002752adf6281447c5ef51bc9e87334ca2c3476a04b098a42c9b510"
      } ],
      "effectiveDateTime": "2015-04-03",
      "valueCodeableConcept": {
        "coding": [ {
          "system": "https://www.medizininformatik-initiative.de/fhir/ext/modul-onko/CodeSystem/mii-cs-onko-grading",
          "code": "T"
        } ]
      },
      "specimen": {
        "reference": "Specimen/cac92d4dc889a2b71271d6018d492914391709a69ac21b6849b849ccc00a2575"
      }
    },
    "request": {
      "method": "PUT",
      "url": "Observation/7f1dfbb42c61b66028d7df0ea50ad1f9e863e9e6d2b98d70528fdbf77cb9bc55"
    }
  }, {
    "fullUrl": "Observation/608498bafb76915e9a6a7fbbc624af655549d215269b5bbd2b0082703892efa9",
    "resource": {
      "resourceType": "Observation",
      "id": "608498bafb76915e9a6a7fbbc624af655549d215269b5bbd2b0082703892efa9",
      "meta": {
        "profile": [ "https://www.medizininformatik-initiative.de/fhir/ext/modul-onko/StructureDefinition/mii-pr-onko-studienteilnahme" ]
      },
      "identifier": [ {
        "system": "https://bzkf.github.io/obds-to-fhir/identifiers/studienteilnahme-id",
        "value": "30_DIA_CLL_01_Studienteilnahme"
      } ],
      "status": "final",
      "code": {
        "coding": [ {
          "system": "http://snomed.info/sct",
          "code": "709491003",
          "display": "Enrollment in clinical trial (procedure)"
        } ]
      },
      "subject": {
        "reference": "Patient/66eab990c3ab4a1dac96eecfa7189a4455b4a4e9d39b1813fa20e17b8cc564d2"
      },
      "focus": [ {
        "reference": "Condition/413358315002752adf6281447c5ef51bc9e87334ca2c3476a04b098a42c9b510"
      } ],
      "valueCodeableConcept": {
        "coding": [ {
          "system": "https://www.medizininformatik-initiative.de/fhir/ext/modul-onko/CodeSystem/mii-cs-onko-studienteilnahme",
          "code": "N"
        } ]
      }
    },
    "request": {
      "method": "PUT",
      "url": "Observation/608498bafb76915e9a6a7fbbc624af655549d215269b5bbd2b0082703892efa9"
    }
  }, {
    "fullUrl": "Observation/21ea34c0d1e3c7e08b0480f0421b97fdfb79f6be353b4516fce36921c6e91c1f",
    "resource": {
      "resourceType": "Observation",
      "id": "21ea34c0d1e3c7e08b0480f0421b97fdfb79f6be353b4516fce36921c6e91c1f",
      "meta": {
        "profile": [ "https://www.medizininformatik-initiative.de/fhir/ext/modul-onko/StructureDefinition/mii-pr-onko-weitere-klassifikationen" ]
      },
      "identifier": [ {
        "system": "https://bzkf.github.io/obds-to-fhir/identifiers/weitere-klassifikation-observation-id",
        "value": "30_DIA_CLL_01-binet"
      } ],
      "status": "final",
      "code": {
        "text": "Binet"
      },
      "subject": {
        "reference": "Patient/66eab990c3ab4a1dac96eecfa7189a4455b4a4e9d39b1813fa20e17b8cc564d2"
      },
      "focus": [ {
        "reference": "Condition/413358315002752adf6281447c5ef51bc9e87334ca2c3476a04b098a42c9b510"
      } ],
      "effectiveDateTime": "2018-04-03",
      "valueCodeableConcept": {
        "coding": [ {
          "code": "A"
        } ]
      }
    },
    "request": {
      "method": "PUT",
      "url": "Observation/21ea34c0d1e3c7e08b0480f0421b97fdfb79f6be353b4516fce36921c6e91c1f"
    }
  }, {
    "fullUrl": "Procedure/468b48b84c08b2959fa1521508cb461ed2111042570286cc8183a6bd45576d3a",
    "resource": {
      "resourceType": "Procedure",
      "id": "468b48b84c08b2959fa1521508cb461ed2111042570286cc8183a6bd45576d3a",
      "meta": {
        "profile": [ "https://www.medizininformatik-initiative.de/fhir/ext/modul-onko/StructureDefinition/mii-pr-onko-systemische-therapie" ]
      },
      "extension": [ {
        "url": "https://www.medizininformatik-initiative.de/fhir/ext/modul-onko/StructureDefinition/mii-ex-onko-systemische-therapie-intention",
        "valueCodeableConcept": {
          "coding": [ {
            "system": "https://www.medizininformatik-initiative.de/fhir/ext/modul-onko/CodeSystem/mii-cs-onko-intention",
            "code": "S"
          } ]
        }
      }, {
        "url": "https://www.medizininformatik-initiative.de/fhir/ext/modul-onko/StructureDefinition/mii-ex-onko-strahlentherapie-stellungzurop",
        "valueCodeableConcept": {
          "coding": [ {
            "system": "https://www.medizininformatik-initiative.de/fhir/ext/modul-onko/CodeSystem/mii-cs-therapie-stellungzurop",
            "code": "O"
          } ]
        }
      } ],
      "identifier": [ {
        "system": "https://bzkf.github.io/obds-to-fhir/identifiers/systemische-therapie-procedure-id",
        "value": "992_syst1"
      } ],
      "status": "completed",
      "category": {
        "coding": [ {
          "system": "http://snomed.info/sct",
          "_code": {
            "extension": [ {
              "url": "http://hl7.org/fhir/StructureDefinition/data-absent-reason",
              "valueCode": "unknown"
            } ]
          }
        } ]
      },
      "code": {
        "coding": [ {
          "system": "http://snomed.info/sct",
          "code": "373818007"
        }, {
          "system": "https://www.medizininformatik-initiative.de/fhir/ext/modul-onko/CodeSystem/mii-cs-onko-therapie-typ",
          "code": "WW"
        } ]
      },
      "subject": {
        "reference": "Patient/66eab990c3ab4a1dac96eecfa7189a4455b4a4e9d39b1813fa20e17b8cc564d2"
      },
      "performedPeriod": {
        "start": "2015-07-15",
        "end": "2020-07-18"
      },
      "outcome": {
        "coding": [ {
          "system": "https://www.medizininformatik-initiative.de/fhir/ext/modul-onko/CodeSystem/mii-cs-therapie-grund-ende",
          "code": "P"
        } ]
      }
    },
    "request": {
      "method": "PUT",
      "url": "Procedure/468b48b84c08b2959fa1521508cb461ed2111042570286cc8183a6bd45576d3a"
    }
  }, {
    "fullUrl": "Observation/ec33a8efcfcb75e08f08f99c73cb91c4223c68f092f15bc5d86d1eb944828828",
    "resource": {
      "resourceType": "Observation",
      "id": "ec33a8efcfcb75e08f08f99c73cb91c4223c68f092f15bc5d86d1eb944828828",
      "meta": {
        "profile": [ "https://www.medizininformatik-initiative.de/fhir/ext/modul-onko/StructureDefinition/mii-pr-onko-studienteilnahme" ]
      },
      "identifier": [ {
        "system": "https://bzkf.github.io/obds-to-fhir/identifiers/studienteilnahme-id",
        "value": "30_Inner_1_Studienteilnahme"
      } ],
      "status": "final",
      "code": {
        "coding": [ {
          "system": "http://snomed.info/sct",
          "code": "709491003",
          "display": "Enrollment in clinical trial (procedure)"
        } ]
      },
      "subject": {
        "reference": "Patient/66eab990c3ab4a1dac96eecfa7189a4455b4a4e9d39b1813fa20e17b8cc564d2"
      },
      "focus": [ {
        "reference": "Condition/413358315002752adf6281447c5ef51bc9e87334ca2c3476a04b098a42c9b510"
      } ],
      "valueCodeableConcept": {
        "coding": [ {
          "system": "https://www.medizininformatik-initiative.de/fhir/ext/modul-onko/CodeSystem/mii-cs-onko-studienteilnahme",
          "code": "N"
        } ]
      }
    },
    "request": {
      "method": "PUT",
      "url": "Observation/ec33a8efcfcb75e08f08f99c73cb91c4223c68f092f15bc5d86d1eb944828828"
    }
  }, {
    "fullUrl": "Procedure/20e22fcd38d26f04e68c47a89593d87bd215142f6188e41d490c3d7d8ec6c3cc",
    "resource": {
      "resourceType": "Procedure",
      "id": "20e22fcd38d26f04e68c47a89593d87bd215142f6188e41d490c3d7d8ec6c3cc",
      "meta": {
        "profile": [ "https://www.medizininformatik-initiative.de/fhir/ext/modul-onko/StructureDefinition/mii-pr-onko-systemische-therapie" ]
      },
      "extension": [ {
        "url": "https://www.medizininformatik-initiative.de/fhir/ext/modul-onko/StructureDefinition/mii-ex-onko-systemische-therapie-intention",
        "valueCodeableConcept": {
          "coding": [ {
            "system": "https://www.medizininformatik-initiative.de/fhir/ext/modul-onko/CodeSystem/mii-cs-onko-intention",
            "code": "K"
          } ]
        }
      }, {
        "url": "https://www.medizininformatik-initiative.de/fhir/ext/modul-onko/StructureDefinition/mii-ex-onko-strahlentherapie-stellungzurop",
        "valueCodeableConcept": {
          "coding": [ {
            "system": "https://www.medizininformatik-initiative.de/fhir/ext/modul-onko/CodeSystem/mii-cs-therapie-stellungzurop",
            "code": "O"
          } ]
        }
      } ],
      "identifier": [ {
        "system": "https://bzkf.github.io/obds-to-fhir/identifiers/systemische-therapie-procedure-id",
        "value": "993_syst1"
      } ],
      "status": "in-progress",
      "category": {
        "coding": [ {
          "system": "http://snomed.info/sct",
          "code": "18629005"
        } ]
      },
      "code": {
        "coding": [ {
          "system": "http://fhir.de/CodeSystem/bfarm/ops",
          "code": "8-54"
        }, {
          "system": "https://www.medizininformatik-initiative.de/fhir/ext/modul-onko/CodeSystem/mii-cs-onko-therapie-typ",
          "code": "CI"
        } ]
      },
      "subject": {
        "reference": "Patient/66eab990c3ab4a1dac96eecfa7189a4455b4a4e9d39b1813fa20e17b8cc564d2"
      },
      "performedPeriod": {
        "start": "2020-09-01"
      }
    },
    "request": {
      "method": "PUT",
      "url": "Procedure/20e22fcd38d26f04e68c47a89593d87bd215142f6188e41d490c3d7d8ec6c3cc"
    }
  }, {
    "fullUrl": "MedicationStatement/07a1de7ad1a2997a550d339c7f9213873a49a78b412fac091c8cd6a6d540372b",
    "resource": {
      "resourceType": "MedicationStatement",
      "id": "07a1de7ad1a2997a550d339c7f9213873a49a78b412fac091c8cd6a6d540372b",
      "meta": {
        "profile": [ "https://www.medizininformatik-initiative.de/fhir/core/modul-medikation/StructureDefinition/MedicationStatement" ]
      },
      "identifier": [ {
        "system": "https://bzkf.github.io/obds-to-fhir/identifiers/systemische-therapie-medication-statement-id",
        "value": "993_syst1_Cyclophosphamid_7ddd"
      } ],
      "partOf": [ {
        "reference": "Procedure/20e22fcd38d26f04e68c47a89593d87bd215142f6188e41d490c3d7d8ec6c3cc"
      } ],
      "status": "active",
      "medicationCodeableConcept": {
        "text": "Cyclophosphamid"
      },
      "subject": {
        "reference": "Patient/66eab990c3ab4a1dac96eecfa7189a4455b4a4e9d39b1813fa20e17b8cc564d2"
      },
      "effectivePeriod": {
        "start": "2020-09-01"
      }
    },
    "request": {
      "method": "PUT",
      "url": "MedicationStatement/07a1de7ad1a2997a550d339c7f9213873a49a78b412fac091c8cd6a6d540372b"
    }
  }, {
    "fullUrl": "MedicationStatement/78dccc6b6fd75b4e9729d6698f082d6f1c02af727eb088f98544046c5457f6bf",
    "resource": {
      "resourceType": "MedicationStatement",
      "id": "78dccc6b6fd75b4e9729d6698f082d6f1c02af727eb088f98544046c5457f6bf",
      "meta": {
        "profile": [ "https://www.medizininformatik-initiative.de/fhir/core/modul-medikation/StructureDefinition/MedicationStatement" ]
      },
      "identifier": [ {
        "system": "https://bzkf.github.io/obds-to-fhir/identifiers/systemische-therapie-medication-statement-id",
        "value": "993_syst1_Fludarabin_2b64"
      } ],
      "partOf": [ {
        "reference": "Procedure/20e22fcd38d26f04e68c47a89593d87bd215142f6188e41d490c3d7d8ec6c3cc"
      } ],
      "status": "active",
      "medicationCodeableConcept": {
        "text": "Fludarabin"
      },
      "subject": {
        "reference": "Patient/66eab990c3ab4a1dac96eecfa7189a4455b4a4e9d39b1813fa20e17b8cc564d2"
      },
      "effectivePeriod": {
        "start": "2020-09-01"
      }
    },
    "request": {
      "method": "PUT",
      "url": "MedicationStatement/78dccc6b6fd75b4e9729d6698f082d6f1c02af727eb088f98544046c5457f6bf"
    }
  }, {
    "fullUrl": "MedicationStatement/6ccec74dddb93f058b2d87d1a38533b0fa83713c69bac9872de8ce1636675134",
    "resource": {
      "resourceType": "MedicationStatement",
      "id": "6ccec74dddb93f058b2d87d1a38533b0fa83713c69bac9872de8ce1636675134",
      "meta": {
        "profile": [ "https://www.medizininformatik-initiative.de/fhir/core/modul-medikation/StructureDefinition/MedicationStatement" ]
      },
      "identifier": [ {
        "system": "https://bzkf.github.io/obds-to-fhir/identifiers/systemische-therapie-medication-statement-id",
        "value": "993_syst1_Rituximab_e082"
      } ],
      "partOf": [ {
        "reference": "Procedure/20e22fcd38d26f04e68c47a89593d87bd215142f6188e41d490c3d7d8ec6c3cc"
      } ],
      "status": "active",
      "medicationCodeableConcept": {
        "text": "Rituximab"
      },
      "subject": {
        "reference": "Patient/66eab990c3ab4a1dac96eecfa7189a4455b4a4e9d39b1813fa20e17b8cc564d2"
      },
      "effectivePeriod": {
        "start": "2020-09-01"
      }
    },
    "request": {
      "method": "PUT",
      "url": "MedicationStatement/6ccec74dddb93f058b2d87d1a38533b0fa83713c69bac9872de8ce1636675134"
    }
  }, {
    "fullUrl": "Observation/bd61067c64cea1d3e78ab7893668c26512237a5791e9820380f176fd8a1936d7",
    "resource": {
      "resourceType": "Observation",
      "id": "bd61067c64cea1d3e78ab7893668c26512237a5791e9820380f176fd8a1936d7",
      "meta": {
        "profile": [ "https://www.medizininformatik-initiative.de/fhir/ext/modul-onko/StructureDefinition/mii-pr-onko-studienteilnahme" ]
      },
      "identifier": [ {
        "system": "https://bzkf.github.io/obds-to-fhir/identifiers/studienteilnahme-id",
        "value": "30_Inner_2_Studienteilnahme"
      } ],
      "status": "final",
      "code": {
        "coding": [ {
          "system": "http://snomed.info/sct",
          "code": "709491003",
          "display": "Enrollment in clinical trial (procedure)"
        } ]
      },
      "subject": {
        "reference": "Patient/66eab990c3ab4a1dac96eecfa7189a4455b4a4e9d39b1813fa20e17b8cc564d2"
      },
      "focus": [ {
        "reference": "Condition/413358315002752adf6281447c5ef51bc9e87334ca2c3476a04b098a42c9b510"
      } ],
      "valueCodeableConcept": {
        "coding": [ {
          "system": "https://www.medizininformatik-initiative.de/fhir/ext/modul-onko/CodeSystem/mii-cs-onko-studienteilnahme",
          "code": "N"
        } ]
      }
    },
    "request": {
      "method": "PUT",
      "url": "Observation/bd61067c64cea1d3e78ab7893668c26512237a5791e9820380f176fd8a1936d7"
    }
  }, {
    "fullUrl": "Observation/44ef659215b381d8790b6c78a8105b1a64b4c532e1cee97d422528d571d1e150",
    "resource": {
      "resourceType": "Observation",
      "id": "44ef659215b381d8790b6c78a8105b1a64b4c532e1cee97d422528d571d1e150",
      "meta": {
        "profile": [ "https://www.medizininformatik-initiative.de/fhir/ext/modul-onko/StructureDefinition/mii-pr-onko-verlauf" ]
      },
      "identifier": [ {
        "system": "https://bzkf.github.io/obds-to-fhir/identifiers/observation-verlauf-id",
        "value": "158"
      } ],
      "status": "final",
      "code": {
        "coding": [ {
          "system": "http://snomed.info/sct",
          "code": "396432002",
          "display": "Status of regression of tumor (observable entity)"
        } ]
      },
      "subject": {
        "reference": "Patient/66eab990c3ab4a1dac96eecfa7189a4455b4a4e9d39b1813fa20e17b8cc564d2"
      },
      "focus": [ {
        "reference": "Condition/413358315002752adf6281447c5ef51bc9e87334ca2c3476a04b098a42c9b510"
      } ],
      "effectiveDateTime": "2020-07-18",
      "valueCodeableConcept": {
        "coding": [ {
          "system": "https://www.medizininformatik-initiative.de/fhir/ext/modul-onko/CodeSystem/mii-cs-onko-verlauf-gesamtbeurteilung",
          "code": "P",
          "display": "Progression"
        } ]
      }
    },
    "request": {
      "method": "PUT",
      "url": "Observation/44ef659215b381d8790b6c78a8105b1a64b4c532e1cee97d422528d571d1e150"
    }
  }, {
    "fullUrl": "Observation/cc4dd4a4b721a37b7fe09749609bfc409f12816af087e11a9ef12ac37c18aa8f",
    "resource": {
      "resourceType": "Observation",
      "id": "cc4dd4a4b721a37b7fe09749609bfc409f12816af087e11a9ef12ac37c18aa8f",
      "meta": {
        "profile": [ "https://www.medizininformatik-initiative.de/fhir/ext/modul-onko/StructureDefinition/mii-pr-onko-allgemeiner-leistungszustand-ecog" ]
      },
      "identifier": [ {
        "system": "https://bzkf.github.io/obds-to-fhir/identifiers/allgemeiner-leistungszustand-ecog-id",
        "value": "ECOG-30_Verlauf_1"
      } ],
      "status": "final",
      "code": {
        "coding": [ {
          "system": "http://snomed.info/sct",
          "code": "423740007"
        } ]
      },
      "subject": {
        "reference": "Patient/66eab990c3ab4a1dac96eecfa7189a4455b4a4e9d39b1813fa20e17b8cc564d2"
      },
      "focus": [ {
        "reference": "Condition/413358315002752adf6281447c5ef51bc9e87334ca2c3476a04b098a42c9b510"
      } ],
      "effectiveDateTime": "2020-07-18",
      "valueCodeableConcept": {
        "coding": [ {
          "system": "https://www.medizininformatik-initiative.de/fhir/ext/modul-onko/CodeSystem/mii-cs-onko-allgemeiner-leistungszustand-ecog",
          "code": "0",
          "display": "Normale, uneingeschränkte Aktivität wie vor der Erkrankung (90 - 100 % nach Karnofsky)"
        } ]
      }
    },
    "request": {
      "method": "PUT",
      "url": "Observation/cc4dd4a4b721a37b7fe09749609bfc409f12816af087e11a9ef12ac37c18aa8f"
    }
  }, {
    "fullUrl": "Observation/30434048dc341d3d2cb94af94d73dabea4adf1b1dc3ddd6a6b2bd31e6c6fd776",
    "resource": {
      "resourceType": "Observation",
      "id": "30434048dc341d3d2cb94af94d73dabea4adf1b1dc3ddd6a6b2bd31e6c6fd776",
      "meta": {
        "profile": [ "https://www.medizininformatik-initiative.de/fhir/ext/modul-onko/StructureDefinition/mii-pr-onko-studienteilnahme" ]
      },
      "identifier": [ {
        "system": "https://bzkf.github.io/obds-to-fhir/identifiers/studienteilnahme-id",
        "value": "30_Verlauf_1_Studienteilnahme"
      } ],
      "status": "final",
      "code": {
        "coding": [ {
          "system": "http://snomed.info/sct",
          "code": "709491003",
          "display": "Enrollment in clinical trial (procedure)"
        } ]
      },
      "subject": {
        "reference": "Patient/66eab990c3ab4a1dac96eecfa7189a4455b4a4e9d39b1813fa20e17b8cc564d2"
      },
      "focus": [ {
        "reference": "Condition/413358315002752adf6281447c5ef51bc9e87334ca2c3476a04b098a42c9b510"
      } ],
      "valueCodeableConcept": {
        "coding": [ {
          "system": "https://www.medizininformatik-initiative.de/fhir/ext/modul-onko/CodeSystem/mii-cs-onko-studienteilnahme",
          "code": "N"
        } ]
      }
    },
    "request": {
      "method": "PUT",
      "url": "Observation/30434048dc341d3d2cb94af94d73dabea4adf1b1dc3ddd6a6b2bd31e6c6fd776"
    }
  }, {
    "fullUrl": "CarePlan/b8ad15d63609dcb8fdcdb3a8aafcd69a333c6320b19eeac5ccd997f5a7f7b18c",
    "resource": {
      "resourceType": "CarePlan",
      "id": "b8ad15d63609dcb8fdcdb3a8aafcd69a333c6320b19eeac5ccd997f5a7f7b18c",
      "meta": {
        "profile": [ "https://www.medizininformatik-initiative.de/fhir/ext/modul-onko/StructureDefinition/mii-pr-onko-tumorkonferenz" ]
      },
      "identifier": [ {
        "system": "https://bzkf.github.io/obds-to-fhir/identifiers/tumorkonferenz-id",
        "value": "Tumorkonferenz_111"
      } ],
      "status": "active",
      "intent": "plan",
      "category": [ {
        "coding": [ {
          "system": "https://www.medizininformatik-initiative.de/fhir/ext/modul-onko/CodeSystem/mii-cs-onko-therapieplanung-typ",
          "code": "praeth"
        } ]
      } ],
      "subject": {
        "reference": "Patient/66eab990c3ab4a1dac96eecfa7189a4455b4a4e9d39b1813fa20e17b8cc564d2"
      },
      "created": "2020-08-17",
      "addresses": [ {
        "reference": "Condition/413358315002752adf6281447c5ef51bc9e87334ca2c3476a04b098a42c9b510"
      } ]
    },
    "request": {
      "method": "PUT",
      "url": "CarePlan/b8ad15d63609dcb8fdcdb3a8aafcd69a333c6320b19eeac5ccd997f5a7f7b18c"
    }
  } ]
}