{
  "resourceType": "Bundle",
  "id": "9142ee3ff7990f826ada966f03da267e0fe662f73858158f5e868b772cd68730",
  "type": "transaction",
  "entry": [ {
    "fullUrl": "Patient/9142ee3ff7990f826ada966f03da267e0fe662f73858158f5e868b772cd68730",
    "resource": {
      "resourceType": "Patient",
      "id": "9142ee3ff7990f826ada966f03da267e0fe662f73858158f5e868b772cd68730",
      "meta": {
        "profile": [ "https://www.medizininformatik-initiative.de/fhir/core/modul-person/StructureDefinition/PatientPseudonymisiert" ]
      },
      "identifier": [ {
        "type": {
          "coding": [ {
            "system": "http://terminology.hl7.org/CodeSystem/v2-0203",
            "code": "MR",
            "display": "Medical record number"
          }, {
            "system": "http://terminology.hl7.org/CodeSystem/v3-ObservationValue",
            "code": "PSEUDED",
            "display": "pseudonymized"
          } ]
        },
        "system": "https://bzkf.github.io/obds-to-fhir/identifiers/patient-id",
        "value": "60"
      } ],
      "gender": "female",
      "birthDate": "1950-10-15",
      "deceasedDateTime": "2021-11-27",
      "address": [ {
        "type": "both",
        "postalCode": "74072",
        "country": "DE"
      } ]
    },
    "request": {
      "method": "PUT",
      "url": "Patient/9142ee3ff7990f826ada966f03da267e0fe662f73858158f5e868b772cd68730"
    }
  }, {
    "fullUrl": "Observation/f5cb9006f7ca2b67e940a5a95725a2fc6b1e1687be203f7d317802e45e377857",
    "resource": {
      "resourceType": "Observation",
      "id": "f5cb9006f7ca2b67e940a5a95725a2fc6b1e1687be203f7d317802e45e377857",
      "meta": {
        "profile": [ "https://www.medizininformatik-initiative.de/fhir/ext/modul-onko/StructureDefinition/mii-pr-onko-tod" ]
      },
      "identifier": [ {
        "system": "https://bzkf.github.io/obds-to-fhir/identifiers/tod-observation-id",
        "value": "55_C50.4"
      } ],
      "status": "final",
      "code": {
        "coding": [ {
          "system": "http://snomed.info/sct",
          "code": "184305005"
        } ]
      },
      "subject": {
        "reference": "Patient/9142ee3ff7990f826ada966f03da267e0fe662f73858158f5e868b772cd68730"
      },
      "focus": [ {
        "reference": "Condition/257c056341e9015dfdd7d15cab0a7414b348796b2b01813101078b451af692c6"
      } ],
      "effectiveDateTime": "2021-11-27",
      "valueCodeableConcept": {
        "coding": [ {
          "system": "http://fhir.de/CodeSystem/bfarm/icd-10-gm",
          "version": "2022",
          "code": "C50.4"
        } ]
      },
      "interpretation": [ {
        "coding": [ {
          "system": "https://www.medizininformatik-initiative.de/fhir/ext/modul-onko/CodeSystem/mii-cs-onko-tod",
          "code": "J"
        } ]
      } ]
    },
    "request": {
      "method": "PUT",
      "url": "Observation/f5cb9006f7ca2b67e940a5a95725a2fc6b1e1687be203f7d317802e45e377857"
    }
  }, {
    "fullUrl": "Observation/cd118ca3e3a3ee2412cfba5bb69e74fb72396a9b815308c08b41f8c747b200e2",
    "resource": {
      "resourceType": "Observation",
      "id": "cd118ca3e3a3ee2412cfba5bb69e74fb72396a9b815308c08b41f8c747b200e2",
      "meta": {
        "profile": [ "https://www.medizininformatik-initiative.de/fhir/ext/modul-onko/StructureDefinition/mii-pr-onko-verlauf" ]
      },
      "identifier": [ {
        "system": "https://bzkf.github.io/obds-to-fhir/identifiers/observation-verlauf-id",
        "value": "153"
      } ],
      "status": "final",
      "code": {
        "coding": [ {
          "system": "http://snomed.info/sct",
          "code": "396432002",
          "display": "Status of regression of tumor (observable entity)"
        } ]
      },
      "subject": {
        "reference": "Patient/9142ee3ff7990f826ada966f03da267e0fe662f73858158f5e868b772cd68730"
      },
      "focus": [ {
        "reference": "Condition/257c056341e9015dfdd7d15cab0a7414b348796b2b01813101078b451af692c6"
      } ],
      "effectiveDateTime": "2021-09-14",
      "valueCodeableConcept": {
        "coding": [ {
          "system": "https://www.medizininformatik-initiative.de/fhir/ext/modul-onko/CodeSystem/mii-cs-onko-verlauf-gesamtbeurteilung",
          "code": "P",
          "display": "Progression"
        } ]
      },
      "component": [ {
        "code": {
          "coding": [ {
            "system": "http://snomed.info/sct",
            "code": "277062004",
            "display": "Status des Residualtumors"
          } ]
        },
        "valueCodeableConcept": {
          "coding": [ {
            "system": "https://www.medizininformatik-initiative.de/fhir/ext/modul-onko/CodeSystem/mii-cs-onko-verlauf-primaertumor",
            "code": "R",
            "display": "Lokalrezidiv"
          } ]
        }
      }, {
        "code": {
          "coding": [ {
            "system": "http://snomed.info/sct",
            "code": "399656008",
            "display": "Status of tumor metastasis to regional lymph nodes (observable entity)"
          } ]
        },
        "valueCodeableConcept": {
          "coding": [ {
            "system": "https://www.medizininformatik-initiative.de/fhir/ext/modul-onko/CodeSystem/mii-cs-onko-verlauf-lymphknoten",
            "code": "R",
            "display": "neu aufgetretenes Lymphknotenrezidiv"
          } ]
        }
      }, {
        "code": {
          "coding": [ {
            "system": "http://snomed.info/sct",
            "code": "399608002",
            "display": "Status of distant metastasis (observable entity)"
          } ]
        },
        "valueCodeableConcept": {
          "coding": [ {
            "system": "https://www.medizininformatik-initiative.de/fhir/ext/modul-onko/CodeSystem/mii-cs-onko-verlauf-fernmetastasen",
            "code": "R",
            "display": "neu aufgetretene Fernmetastase(n) bzw. Metastasenrezidiv"
          } ]
        }
      } ]
    },
    "request": {
      "method": "PUT",
      "url": "Observation/cd118ca3e3a3ee2412cfba5bb69e74fb72396a9b815308c08b41f8c747b200e2"
    }
  }, {
    "fullUrl": "Observation/7d9afbd70680a9fd458f4d21cb4be15181aacc3303ffdc1c34e6dd499ad94c30",
    "resource": {
      "resourceType": "Observation",
      "id": "7d9afbd70680a9fd458f4d21cb4be15181aacc3303ffdc1c34e6dd499ad94c30",
      "meta": {
        "profile": [ "https://www.medizininformatik-initiative.de/fhir/ext/modul-onko/StructureDefinition/mii-pr-onko-fernmetastasen" ]
      },
      "identifier": [ {
        "system": "https://bzkf.github.io/obds-to-fhir/identifiers/fernmetastasen-id",
        "value": "VER_60102-Verlauf-0"
      } ],
      "status": "final",
      "code": {
        "coding": [ {
          "system": "http://snomed.info/sct",
          "code": "385421009"
        } ]
      },
      "subject": {
        "reference": "Patient/9142ee3ff7990f826ada966f03da267e0fe662f73858158f5e868b772cd68730"
      },
      "focus": [ {
        "reference": "Condition/257c056341e9015dfdd7d15cab0a7414b348796b2b01813101078b451af692c6"
      } ],
      "effectiveDateTime": "2021-09-14",
      "valueCodeableConcept": {
        "coding": [ {
          "system": "https://www.medizininformatik-initiative.de/fhir/ext/modul-onko/CodeSystem/mii-cs-onko-fernmetastasen",
          "code": "HEP"
        } ]
      }
    },
    "request": {
      "method": "PUT",
      "url": "Observation/7d9afbd70680a9fd458f4d21cb4be15181aacc3303ffdc1c34e6dd499ad94c30"
    }
  }, {
    "fullUrl": "Observation/ac06b804e9c8f79d11988bd00ef0c8d229a04b880a8b3a3237a7ef9e3ed60528",
    "resource": {
      "resourceType": "Observation",
      "id": "ac06b804e9c8f79d11988bd00ef0c8d229a04b880a8b3a3237a7ef9e3ed60528",
      "meta": {
        "profile": [ "https://www.medizininformatik-initiative.de/fhir/ext/modul-onko/StructureDefinition/mii-pr-onko-fernmetastasen" ]
      },
      "identifier": [ {
        "system": "https://bzkf.github.io/obds-to-fhir/identifiers/fernmetastasen-id",
        "value": "VER_60102-Verlauf-1"
      } ],
      "status": "final",
      "code": {
        "coding": [ {
          "system": "http://snomed.info/sct",
          "code": "385421009"
        } ]
      },
      "subject": {
        "reference": "Patient/9142ee3ff7990f826ada966f03da267e0fe662f73858158f5e868b772cd68730"
      },
      "focus": [ {
        "reference": "Condition/257c056341e9015dfdd7d15cab0a7414b348796b2b01813101078b451af692c6"
      } ],
      "effectiveDateTime": "2021-09-14",
      "valueCodeableConcept": {
        "coding": [ {
          "system": "https://www.medizininformatik-initiative.de/fhir/ext/modul-onko/CodeSystem/mii-cs-onko-fernmetastasen",
          "code": "PUL"
        } ]
      }
    },
    "request": {
      "method": "PUT",
      "url": "Observation/ac06b804e9c8f79d11988bd00ef0c8d229a04b880a8b3a3237a7ef9e3ed60528"
    }
  }, {
    "fullUrl": "Observation/e3d251e35335c6faea888d63606d8ed2bcbc690abb50205bf4d9d7439951dc11",
    "resource": {
      "resourceType": "Observation",
      "id": "e3d251e35335c6faea888d63606d8ed2bcbc690abb50205bf4d9d7439951dc11",
      "meta": {
        "profile": [ "https://www.medizininformatik-initiative.de/fhir/ext/modul-onko/StructureDefinition/mii-pr-onko-allgemeiner-leistungszustand-ecog" ]
      },
      "identifier": [ {
        "system": "https://bzkf.github.io/obds-to-fhir/identifiers/allgemeiner-leistungszustand-ecog-id",
        "value": "ECOG-VER_60102"
      } ],
      "status": "final",
      "code": {
        "coding": [ {
          "system": "http://snomed.info/sct",
          "code": "423740007"
        } ]
      },
      "subject": {
        "reference": "Patient/9142ee3ff7990f826ada966f03da267e0fe662f73858158f5e868b772cd68730"
      },
      "focus": [ {
        "reference": "Condition/257c056341e9015dfdd7d15cab0a7414b348796b2b01813101078b451af692c6"
      } ],
      "effectiveDateTime": "2021-09-14",
      "valueCodeableConcept": {
        "coding": [ {
          "system": "https://www.medizininformatik-initiative.de/fhir/ext/modul-onko/CodeSystem/mii-cs-onko-allgemeiner-leistungszustand-ecog",
          "code": "2",
          "display": "Gehfähig, Selbstversorgung möglich, aber nicht arbeitsfähig; kann mehr als 50 % der Wachzeit aufstehen (50 - 60 % nach Karnofsky)"
        } ]
      }
    },
    "request": {
      "method": "PUT",
      "url": "Observation/e3d251e35335c6faea888d63606d8ed2bcbc690abb50205bf4d9d7439951dc11"
    }
  }, {
    "fullUrl": "Specimen/1d79688586bf4aab850a2f43b7b573f1f2c381a288a0996809df83bc94b6b6b3",
    "resource": {
      "resourceType": "Specimen",
      "id": "1d79688586bf4aab850a2f43b7b573f1f2c381a288a0996809df83bc94b6b6b3",
      "meta": {
        "profile": [ "https://www.medizininformatik-initiative.de/fhir/ext/modul-onko/StructureDefinition/mii-pr-onko-specimen" ]
      },
      "identifier": [ {
        "system": "https://bzkf.github.io/obds-to-fhir/identifiers/specimen-id",
        "value": "260"
      } ],
      "accessionIdentifier": {
        "value": "H23201/2021"
      },
      "subject": {
        "reference": "Patient/9142ee3ff7990f826ada966f03da267e0fe662f73858158f5e868b772cd68730"
      },
      "collection": {
        "collectedDateTime": "2021-09-14"
      }
    },
    "request": {
      "method": "PUT",
      "url": "Specimen/1d79688586bf4aab850a2f43b7b573f1f2c381a288a0996809df83bc94b6b6b3"
    }
  }, {
    "fullUrl": "Observation/fbe772aef812d1afd38a494a443d0c3288e32d94829c48d38383d3d7ff16a35d",
    "resource": {
      "resourceType": "Observation",
      "id": "fbe772aef812d1afd38a494a443d0c3288e32d94829c48d38383d3d7ff16a35d",
      "meta": {
        "profile": [ "https://www.medizininformatik-initiative.de/fhir/ext/modul-onko/StructureDefinition/mii-pr-onko-histologie-icdo3" ]
      },
      "identifier": [ {
        "system": "https://bzkf.github.io/obds-to-fhir/identifiers/observation-histologie-id",
        "value": "260-ICDO3-8500/3"
      } ],
      "status": "final",
      "code": {
        "coding": [ {
          "system": "http://loinc.org",
          "code": "59847-4"
        } ]
      },
      "subject": {
        "reference": "Patient/9142ee3ff7990f826ada966f03da267e0fe662f73858158f5e868b772cd68730"
      },
      "focus": [ {
        "reference": "Condition/257c056341e9015dfdd7d15cab0a7414b348796b2b01813101078b451af692c6"
      } ],
      "effectiveDateTime": "2021-09-14",
      "valueCodeableConcept": {
        "coding": [ {
          "system": "http://terminology.hl7.org/CodeSystem/icd-o-3",
          "version": "31",
          "code": "8500/3"
        } ],
        "text": "Invasives duktales Karzinom o.n.A."
      },
      "specimen": {
        "reference": "Specimen/1d79688586bf4aab850a2f43b7b573f1f2c381a288a0996809df83bc94b6b6b3"
      }
    },
    "request": {
      "method": "PUT",
      "url": "Observation/fbe772aef812d1afd38a494a443d0c3288e32d94829c48d38383d3d7ff16a35d"
    }
  }, {
    "fullUrl": "Observation/e5f3ff74665a599fb92bc0aa91d5a56b5eb24ca23987748d07dd7397852ec885",
    "resource": {
      "resourceType": "Observation",
      "id": "e5f3ff74665a599fb92bc0aa91d5a56b5eb24ca23987748d07dd7397852ec885",
      "meta": {
        "profile": [ "https://www.medizininformatik-initiative.de/fhir/ext/modul-onko/StructureDefinition/mii-pr-onko-grading" ]
      },
      "identifier": [ {
        "system": "https://bzkf.github.io/obds-to-fhir/identifiers/grading-observation-id",
        "value": "260-grading"
      } ],
      "status": "final",
      "category": [ {
        "coding": [ {
          "system": "http://terminology.hl7.org/CodeSystem/observation-category",
          "code": "laboratory"
        } ]
      } ],
      "code": {
        "coding": [ {
          "system": "http://loinc.org",
          "code": "33732-9"
        }, {
          "system": "http://snomed.info/sct",
          "code": "371469007"
        } ]
      },
      "subject": {
        "reference": "Patient/9142ee3ff7990f826ada966f03da267e0fe662f73858158f5e868b772cd68730"
      },
      "focus": [ {
        "reference": "Condition/257c056341e9015dfdd7d15cab0a7414b348796b2b01813101078b451af692c6"
      } ],
      "effectiveDateTime": "2021-09-14",
      "valueCodeableConcept": {
        "coding": [ {
          "system": "https://www.medizininformatik-initiative.de/fhir/ext/modul-onko/CodeSystem/mii-cs-onko-grading",
          "code": "3"
        } ]
      },
      "specimen": {
        "reference": "Specimen/1d79688586bf4aab850a2f43b7b573f1f2c381a288a0996809df83bc94b6b6b3"
      }
    },
    "request": {
      "method": "PUT",
      "url": "Observation/e5f3ff74665a599fb92bc0aa91d5a56b5eb24ca23987748d07dd7397852ec885"
    }
  }, {
    "fullUrl": "Observation/9731cd4af5d541639a3f9fd2e351f849b3488c249a2964d1e149cac63e69e5d5",
    "resource": {
      "resourceType": "Observation",
      "id": "9731cd4af5d541639a3f9fd2e351f849b3488c249a2964d1e149cac63e69e5d5",
      "meta": {
        "profile": [ "https://www.medizininformatik-initiative.de/fhir/ext/modul-onko/StructureDefinition/mii-pr-onko-tnm-t-kategorie" ]
      },
      "identifier": [ {
        "system": "https://bzkf.github.io/obds-to-fhir/identifiers/tnm-t-kategorie-observation-id",
        "value": "247_T"
      } ],
      "status": "final",
      "code": {
        "extension": [ {
          "url": "https://www.medizininformatik-initiative.de/fhir/ext/modul-onko/StructureDefinition/mii-ex-onko-tnm-cp-praefix",
          "valueCodeableConcept": {
            "coding": [ {
              "system": "https://www.uicc.org/resources/tnm",
              "code": "c"
            } ]
          }
        } ],
        "coding": [ {
          "system": "http://snomed.info/sct",
          "code": "399504009",
          "display": "cT category (observable entity)"
        } ]
      },
      "subject": {
        "reference": "Patient/9142ee3ff7990f826ada966f03da267e0fe662f73858158f5e868b772cd68730"
      },
      "focus": [ {
        "reference": "Condition/257c056341e9015dfdd7d15cab0a7414b348796b2b01813101078b451af692c6"
      } ],
      "effectiveDateTime": "2021-09-14",
      "valueCodeableConcept": {
        "coding": [ {
          "system": "https://www.uicc.org/resources/tnm",
          "code": "T1c"
        } ]
      },
      "method": {
        "coding": [ {
          "system": "https://www.medizininformatik-initiative.de/fhir/ext/modul-onko/CodeSystem/mii-cs-onko-tnm-version",
          "code": "8"
        } ]
      }
    },
    "request": {
      "method": "PUT",
      "url": "Observation/9731cd4af5d541639a3f9fd2e351f849b3488c249a2964d1e149cac63e69e5d5"
    }
  }, {
    "fullUrl": "Observation/c3b4bcea4dbda0af340f7d0d32ab3d49a7741254c02b306eccdb10694e26945c",
    "resource": {
      "resourceType": "Observation",
      "id": "c3b4bcea4dbda0af340f7d0d32ab3d49a7741254c02b306eccdb10694e26945c",
      "meta": {
        "profile": [ "https://www.medizininformatik-initiative.de/fhir/ext/modul-onko/StructureDefinition/mii-pr-onko-tnm-n-kategorie" ]
      },
      "identifier": [ {
        "system": "https://bzkf.github.io/obds-to-fhir/identifiers/tnm-n-kategorie-observation-id",
        "value": "247_N"
      } ],
      "status": "final",
      "code": {
        "extension": [ {
          "url": "https://www.medizininformatik-initiative.de/fhir/ext/modul-onko/StructureDefinition/mii-ex-onko-tnm-cp-praefix",
          "valueCodeableConcept": {
            "coding": [ {
              "system": "https://www.uicc.org/resources/tnm",
              "code": "c"
            } ]
          }
        } ],
        "coding": [ {
          "system": "http://snomed.info/sct",
          "code": "399534004",
          "display": "cN category (observable entity)"
        } ]
      },
      "subject": {
        "reference": "Patient/9142ee3ff7990f826ada966f03da267e0fe662f73858158f5e868b772cd68730"
      },
      "focus": [ {
        "reference": "Condition/257c056341e9015dfdd7d15cab0a7414b348796b2b01813101078b451af692c6"
      } ],
      "effectiveDateTime": "2021-09-14",
      "valueCodeableConcept": {
        "coding": [ {
          "system": "https://www.uicc.org/resources/tnm",
          "code": "N1"
        } ]
      },
      "method": {
        "coding": [ {
          "system": "https://www.medizininformatik-initiative.de/fhir/ext/modul-onko/CodeSystem/mii-cs-onko-tnm-version",
          "code": "8"
        } ]
      }
    },
    "request": {
      "method": "PUT",
      "url": "Observation/c3b4bcea4dbda0af340f7d0d32ab3d49a7741254c02b306eccdb10694e26945c"
    }
  }, {
    "fullUrl": "Observation/56d327bfd6f35395d32a1973d7df8d68c313b9934a0d6651dd57b0647897401d",
    "resource": {
      "resourceType": "Observation",
      "id": "56d327bfd6f35395d32a1973d7df8d68c313b9934a0d6651dd57b0647897401d",
      "meta": {
        "profile": [ "https://www.medizininformatik-initiative.de/fhir/ext/modul-onko/StructureDefinition/mii-pr-onko-tnm-m-kategorie" ]
      },
      "identifier": [ {
        "system": "https://bzkf.github.io/obds-to-fhir/identifiers/tnm-m-kategorie-observation-id",
        "value": "247_M"
      } ],
      "status": "final",
      "code": {
        "extension": [ {
          "url": "https://www.medizininformatik-initiative.de/fhir/ext/modul-onko/StructureDefinition/mii-ex-onko-tnm-cp-praefix",
          "valueCodeableConcept": {
            "coding": [ {
              "system": "https://www.uicc.org/resources/tnm",
              "code": "c"
            } ]
          }
        } ],
        "coding": [ {
          "system": "http://snomed.info/sct",
          "code": "399387003",
          "display": "cM category (observable entity)"
        } ]
      },
      "subject": {
        "reference": "Patient/9142ee3ff7990f826ada966f03da267e0fe662f73858158f5e868b772cd68730"
      },
      "focus": [ {
        "reference": "Condition/257c056341e9015dfdd7d15cab0a7414b348796b2b01813101078b451af692c6"
      } ],
      "effectiveDateTime": "2021-09-14",
      "valueCodeableConcept": {
        "coding": [ {
          "system": "https://www.uicc.org/resources/tnm",
          "code": "M1"
        } ]
      },
      "method": {
        "coding": [ {
          "system": "https://www.medizininformatik-initiative.de/fhir/ext/modul-onko/CodeSystem/mii-cs-onko-tnm-version",
          "code": "8"
        } ]
      }
    },
    "request": {
      "method": "PUT",
      "url": "Observation/56d327bfd6f35395d32a1973d7df8d68c313b9934a0d6651dd57b0647897401d"
    }
  }, {
    "fullUrl": "Observation/9e412218098324f72e3e6ae91e53f42b7a19b4274eb372777d2044a0ffd7e0b7",
    "resource": {
      "resourceType": "Observation",
      "id": "9e412218098324f72e3e6ae91e53f42b7a19b4274eb372777d2044a0ffd7e0b7",
      "meta": {
        "profile": [ "https://www.medizininformatik-initiative.de/fhir/ext/modul-onko/StructureDefinition/mii-pr-onko-tnm-l-kategorie" ]
      },
      "identifier": [ {
        "system": "https://bzkf.github.io/obds-to-fhir/identifiers/tnm-l-kategorie-observation-id",
        "value": "247_L"
      } ],
      "status": "final",
      "code": {
        "coding": [ {
          "system": "http://snomed.info/sct",
          "code": "395715009"
        } ]
      },
      "subject": {
        "reference": "Patient/9142ee3ff7990f826ada966f03da267e0fe662f73858158f5e868b772cd68730"
      },
      "focus": [ {
        "reference": "Condition/257c056341e9015dfdd7d15cab0a7414b348796b2b01813101078b451af692c6"
      } ],
      "effectiveDateTime": "2021-09-14",
      "valueCodeableConcept": {
        "coding": [ {
          "system": "https://www.uicc.org/resources/tnm",
          "code": "L1"
        } ]
      },
      "method": {
        "coding": [ {
          "system": "https://www.medizininformatik-initiative.de/fhir/ext/modul-onko/CodeSystem/mii-cs-onko-tnm-version",
          "code": "8"
        } ]
      }
    },
    "request": {
      "method": "PUT",
      "url": "Observation/9e412218098324f72e3e6ae91e53f42b7a19b4274eb372777d2044a0ffd7e0b7"
    }
  }, {
    "fullUrl": "Observation/c5e177aefdd293e531baff90647dc76426bd5420b9c9a167c844194be6ffe900",
    "resource": {
      "resourceType": "Observation",
      "id": "c5e177aefdd293e531baff90647dc76426bd5420b9c9a167c844194be6ffe900",
      "meta": {
        "profile": [ "https://www.medizininformatik-initiative.de/fhir/ext/modul-onko/StructureDefinition/mii-pr-onko-tnm-pn-kategorie" ]
      },
      "identifier": [ {
        "system": "https://bzkf.github.io/obds-to-fhir/identifiers/tnm-pn-kategorie-observation-id",
        "value": "247_Pn"
      } ],
      "status": "final",
      "code": {
        "coding": [ {
          "system": "http://snomed.info/sct",
          "code": "371513001"
        } ]
      },
      "subject": {
        "reference": "Patient/9142ee3ff7990f826ada966f03da267e0fe662f73858158f5e868b772cd68730"
      },
      "focus": [ {
        "reference": "Condition/257c056341e9015dfdd7d15cab0a7414b348796b2b01813101078b451af692c6"
      } ],
      "effectiveDateTime": "2021-09-14",
      "valueCodeableConcept": {
        "coding": [ {
          "system": "https://www.uicc.org/resources/tnm",
          "code": "Pn1"
        } ]
      },
      "method": {
        "coding": [ {
          "system": "https://www.medizininformatik-initiative.de/fhir/ext/modul-onko/CodeSystem/mii-cs-onko-tnm-version",
          "code": "8"
        } ]
      }
    },
    "request": {
      "method": "PUT",
      "url": "Observation/c5e177aefdd293e531baff90647dc76426bd5420b9c9a167c844194be6ffe900"
    }
  }, {
    "fullUrl": "Observation/4a5e09082c2df251606aa8ff7a41fa7d2c1e4296d9e4bae5d4a0ebb65cf27bd4",
    "resource": {
      "resourceType": "Observation",
      "id": "4a5e09082c2df251606aa8ff7a41fa7d2c1e4296d9e4bae5d4a0ebb65cf27bd4",
      "meta": {
        "profile": [ "https://www.medizininformatik-initiative.de/fhir/ext/modul-onko/StructureDefinition/mii-pr-onko-tnm-r-symbol" ]
      },
      "identifier": [ {
        "system": "https://bzkf.github.io/obds-to-fhir/identifiers/tnm-r-symbol-observation-id",
        "value": "247_r"
      } ],
      "status": "final",
      "code": {
        "coding": [ {
          "system": "http://loinc.org",
          "code": "101659-1"
        } ]
      },
      "subject": {
        "reference": "Patient/9142ee3ff7990f826ada966f03da267e0fe662f73858158f5e868b772cd68730"
      },
      "focus": [ {
        "reference": "Condition/257c056341e9015dfdd7d15cab0a7414b348796b2b01813101078b451af692c6"
      } ],
      "effectiveDateTime": "2021-09-14",
      "valueCodeableConcept": {
        "coding": [ {
          "system": "http://snomed.info/sct",
          "code": "421188008"
        } ]
      },
      "method": {
        "coding": [ {
          "system": "https://www.medizininformatik-initiative.de/fhir/ext/modul-onko/CodeSystem/mii-cs-onko-tnm-version",
          "code": "8"
        } ]
      }
    },
    "request": {
      "method": "PUT",
      "url": "Observation/4a5e09082c2df251606aa8ff7a41fa7d2c1e4296d9e4bae5d4a0ebb65cf27bd4"
    }
  }, {
    "fullUrl": "Observation/ba7c5461c2f2c781d606c8747839e5d522e60696b9aff92eea96fb5eb7047790",
    "resource": {
      "resourceType": "Observation",
      "id": "ba7c5461c2f2c781d606c8747839e5d522e60696b9aff92eea96fb5eb7047790",
      "meta": {
        "profile": [ "https://www.medizininformatik-initiative.de/fhir/ext/modul-onko/StructureDefinition/mii-pr-onko-tnm-v-kategorie" ]
      },
      "identifier": [ {
        "system": "https://bzkf.github.io/obds-to-fhir/identifiers/tnm-v-kategorie-observation-id",
        "value": "247_V"
      } ],
      "status": "final",
      "code": {
        "coding": [ {
          "system": "http://snomed.info/sct",
          "code": "371493002"
        } ]
      },
      "subject": {
        "reference": "Patient/9142ee3ff7990f826ada966f03da267e0fe662f73858158f5e868b772cd68730"
      },
      "focus": [ {
        "reference": "Condition/257c056341e9015dfdd7d15cab0a7414b348796b2b01813101078b451af692c6"
      } ],
      "effectiveDateTime": "2021-09-14",
      "valueCodeableConcept": {
        "coding": [ {
          "system": "https://www.uicc.org/resources/tnm",
          "code": "V1"
        } ]
      },
      "method": {
        "coding": [ {
          "system": "https://www.medizininformatik-initiative.de/fhir/ext/modul-onko/CodeSystem/mii-cs-onko-tnm-version",
          "code": "8"
        } ]
      }
    },
    "request": {
      "method": "PUT",
      "url": "Observation/ba7c5461c2f2c781d606c8747839e5d522e60696b9aff92eea96fb5eb7047790"
    }
  }, {
    "fullUrl": "Observation/a1f3e52a64932685b8f482c9464dbef6183c04b2f7ec232e8e3e425b73e641a7",
    "resource": {
      "resourceType": "Observation",
      "id": "a1f3e52a64932685b8f482c9464dbef6183c04b2f7ec232e8e3e425b73e641a7",
      "meta": {
        "profile": [ "https://www.medizininformatik-initiative.de/fhir/ext/modul-onko/StructureDefinition/mii-pr-onko-tnm-klassifikation" ]
      },
      "identifier": [ {
        "system": "https://bzkf.github.io/obds-to-fhir/identifiers/tnm-grouping-observation-id",
        "value": "247"
      } ],
      "status": "final",
      "code": {
        "coding": [ {
          "system": "http://snomed.info/sct",
          "code": "399390009",
          "display": "TNM stage grouping"
        } ]
      },
      "subject": {
        "reference": "Patient/9142ee3ff7990f826ada966f03da267e0fe662f73858158f5e868b772cd68730"
      },
      "focus": [ {
        "reference": "Condition/257c056341e9015dfdd7d15cab0a7414b348796b2b01813101078b451af692c6"
      } ],
      "effectiveDateTime": "2021-09-14",
      "valueCodeableConcept": {
        "coding": [ {
          "system": "https://www.uicc.org/resources/tnm",
          "code": "IV",
          "display": "Stadium IV"
        } ]
      },
      "method": {
        "coding": [ {
          "system": "https://www.medizininformatik-initiative.de/fhir/ext/modul-onko/CodeSystem/mii-cs-onko-tnm-version",
          "code": "8"
        } ]
      },
      "hasMember": [ {
        "reference": "Observation/9731cd4af5d541639a3f9fd2e351f849b3488c249a2964d1e149cac63e69e5d5"
      }, {
        "reference": "Observation/c3b4bcea4dbda0af340f7d0d32ab3d49a7741254c02b306eccdb10694e26945c"
      }, {
        "reference": "Observation/56d327bfd6f35395d32a1973d7df8d68c313b9934a0d6651dd57b0647897401d"
      }, {
        "reference": "Observation/9e412218098324f72e3e6ae91e53f42b7a19b4274eb372777d2044a0ffd7e0b7"
      }, {
        "reference": "Observation/c5e177aefdd293e531baff90647dc76426bd5420b9c9a167c844194be6ffe900"
      }, {
        "reference": "Observation/4a5e09082c2df251606aa8ff7a41fa7d2c1e4296d9e4bae5d4a0ebb65cf27bd4"
      }, {
        "reference": "Observation/ba7c5461c2f2c781d606c8747839e5d522e60696b9aff92eea96fb5eb7047790"
      } ]
    },
    "request": {
      "method": "PUT",
      "url": "Observation/a1f3e52a64932685b8f482c9464dbef6183c04b2f7ec232e8e3e425b73e641a7"
    }
  }, {
    "fullUrl": "Condition/257c056341e9015dfdd7d15cab0a7414b348796b2b01813101078b451af692c6",
    "resource": {
      "resourceType": "Condition",
      "id": "257c056341e9015dfdd7d15cab0a7414b348796b2b01813101078b451af692c6",
      "meta": {
        "profile": [ "https://www.medizininformatik-initiative.de/fhir/ext/modul-onko/StructureDefinition/mii-pr-onko-diagnose-primaertumor" ]
      },
      "extension": [ {
        "url": "https://www.medizininformatik-initiative.de/fhir/ext/modul-onko/StructureDefinition/mii-ex-onko-histology-morphology-behavior-icdo3",
        "valueCodeableConcept": {
          "coding": [ {
            "system": "http://terminology.hl7.org/CodeSystem/icd-o-3",
            "version": "31",
            "code": "8500/3"
          } ]
        }
      }, {
        "url": "http://hl7.org/fhir/StructureDefinition/condition-assertedDate",
        "valueDateTime": "2020-02-16"
      } ],
      "identifier": [ {
        "system": "https://bzkf.github.io/obds-to-fhir/identifiers/primaerdiagnose-id",
        "value": "601"
      } ],
      "verificationStatus": {
        "coding": [ {
          "system": "http://terminology.hl7.org/CodeSystem/condition-ver-status",
          "code": "confirmed"
        }, {
          "system": "https://www.medizininformatik-initiative.de/fhir/ext/modul-onko/CodeSystem/mii-cs-onko-primaertumor-diagnosesicherung",
          "code": "7"
        } ]
      },
      "code": {
        "coding": [ {
          "system": "http://fhir.de/CodeSystem/bfarm/icd-10-gm",
          "version": "2020",
          "code": "C50.4"
        } ]
      },
      "bodySite": [ {
        "coding": [ {
          "system": "http://terminology.hl7.org/CodeSystem/icd-o-3",
          "version": "33",
          "code": "C50.4"
        } ]
      }, {
        "coding": [ {
          "system": "https://www.medizininformatik-initiative.de/fhir/ext/modul-onko/CodeSystem/mii-cs-onko-seitenlokalisation",
          "code": "R"
        } ]
      } ],
      "subject": {
        "reference": "Patient/9142ee3ff7990f826ada966f03da267e0fe662f73858158f5e868b772cd68730"
      },
      "recordedDate": "2024-02-16"
    },
    "request": {
      "method": "PUT",
      "url": "Condition/257c056341e9015dfdd7d15cab0a7414b348796b2b01813101078b451af692c6"
    }
  }, {
    "fullUrl": "Observation/b6fd26e16e61fdab680a3578c55dd2b4d167956df235d345ed5070e86ebe1610",
    "resource": {
      "resourceType": "Observation",
      "id": "b6fd26e16e61fdab680a3578c55dd2b4d167956df235d345ed5070e86ebe1610",
      "meta": {
        "profile": [ "https://www.medizininformatik-initiative.de/fhir/ext/modul-onko/StructureDefinition/mii-pr-onko-allgemeiner-leistungszustand-ecog" ]
      },
      "identifier": [ {
        "system": "https://bzkf.github.io/obds-to-fhir/identifiers/allgemeiner-leistungszustand-ecog-id",
        "value": "ECOG-DIA_60103"
      } ],
      "status": "final",
      "code": {
        "coding": [ {
          "system": "http://snomed.info/sct",
          "code": "423740007"
        } ]
      },
      "subject": {
        "reference": "Patient/9142ee3ff7990f826ada966f03da267e0fe662f73858158f5e868b772cd68730"
      },
      "focus": [ {
        "reference": "Condition/257c056341e9015dfdd7d15cab0a7414b348796b2b01813101078b451af692c6"
      } ],
      "effectiveDateTime": "2020-02-16",
      "valueCodeableConcept": {
        "coding": [ {
          "system": "https://www.medizininformatik-initiative.de/fhir/ext/modul-onko/CodeSystem/mii-cs-onko-allgemeiner-leistungszustand-ecog",
          "code": "0",
          "display": "Normale, uneingeschränkte Aktivität wie vor der Erkrankung (90 - 100 % nach Karnofsky)"
        } ]
      }
    },
    "request": {
      "method": "PUT",
      "url": "Observation/b6fd26e16e61fdab680a3578c55dd2b4d167956df235d345ed5070e86ebe1610"
    }
  }, {
    "fullUrl": "Specimen/418909882b59a6bf841cc3da0ddf3f8135cebb781550c46ca152df8490087711",
    "resource": {
      "resourceType": "Specimen",
      "id": "418909882b59a6bf841cc3da0ddf3f8135cebb781550c46ca152df8490087711",
      "meta": {
        "profile": [ "https://www.medizininformatik-initiative.de/fhir/ext/modul-onko/StructureDefinition/mii-pr-onko-specimen" ]
      },
      "identifier": [ {
        "system": "https://bzkf.github.io/obds-to-fhir/identifiers/specimen-id",
        "value": "261"
      } ],
      "accessionIdentifier": {
        "value": "H1576/2020"
      },
      "subject": {
        "reference": "Patient/9142ee3ff7990f826ada966f03da267e0fe662f73858158f5e868b772cd68730"
      },
      "collection": {
        "collectedDateTime": "2020-02-16"
      }
    },
    "request": {
      "method": "PUT",
      "url": "Specimen/418909882b59a6bf841cc3da0ddf3f8135cebb781550c46ca152df8490087711"
    }
  }, {
    "fullUrl": "Observation/d6b0432f112b33fa3c8e1616e7e40a5ef5be727c51c875adc196a76c750fe481",
    "resource": {
      "resourceType": "Observation",
      "id": "d6b0432f112b33fa3c8e1616e7e40a5ef5be727c51c875adc196a76c750fe481",
      "meta": {
        "profile": [ "https://www.medizininformatik-initiative.de/fhir/ext/modul-onko/StructureDefinition/mii-pr-onko-histologie-icdo3" ]
      },
      "identifier": [ {
        "system": "https://bzkf.github.io/obds-to-fhir/identifiers/observation-histologie-id",
        "value": "261-ICDO3-8500/3"
      } ],
      "status": "final",
      "code": {
        "coding": [ {
          "system": "http://loinc.org",
          "code": "59847-4"
        } ]
      },
      "subject": {
        "reference": "Patient/9142ee3ff7990f826ada966f03da267e0fe662f73858158f5e868b772cd68730"
      },
      "focus": [ {
        "reference": "Condition/257c056341e9015dfdd7d15cab0a7414b348796b2b01813101078b451af692c6"
      } ],
      "effectiveDateTime": "2020-02-16",
      "valueCodeableConcept": {
        "coding": [ {
          "system": "http://terminology.hl7.org/CodeSystem/icd-o-3",
          "version": "31",
          "code": "8500/3"
        } ],
        "text": "Invasives duktales Karzinom o.n.A."
      },
      "specimen": {
        "reference": "Specimen/418909882b59a6bf841cc3da0ddf3f8135cebb781550c46ca152df8490087711"
      }
    },
    "request": {
      "method": "PUT",
      "url": "Observation/d6b0432f112b33fa3c8e1616e7e40a5ef5be727c51c875adc196a76c750fe481"
    }
  }, {
    "fullUrl": "Observation/fb96424cc00fca5db9a5e15f38ff61b952e4b230886be11a5afe31cbc2e23991",
    "resource": {
      "resourceType": "Observation",
      "id": "fb96424cc00fca5db9a5e15f38ff61b952e4b230886be11a5afe31cbc2e23991",
      "meta": {
        "profile": [ "https://www.medizininformatik-initiative.de/fhir/ext/modul-onko/StructureDefinition/mii-pr-onko-grading" ]
      },
      "identifier": [ {
        "system": "https://bzkf.github.io/obds-to-fhir/identifiers/grading-observation-id",
        "value": "261-grading"
      } ],
      "status": "final",
      "category": [ {
        "coding": [ {
          "system": "http://terminology.hl7.org/CodeSystem/observation-category",
          "code": "laboratory"
        } ]
      } ],
      "code": {
        "coding": [ {
          "system": "http://loinc.org",
          "code": "33732-9"
        }, {
          "system": "http://snomed.info/sct",
          "code": "371469007"
        } ]
      },
      "subject": {
        "reference": "Patient/9142ee3ff7990f826ada966f03da267e0fe662f73858158f5e868b772cd68730"
      },
      "focus": [ {
        "reference": "Condition/257c056341e9015dfdd7d15cab0a7414b348796b2b01813101078b451af692c6"
      } ],
      "effectiveDateTime": "2020-02-16",
      "valueCodeableConcept": {
        "coding": [ {
          "system": "https://www.medizininformatik-initiative.de/fhir/ext/modul-onko/CodeSystem/mii-cs-onko-grading",
          "code": "2"
        } ]
      },
      "specimen": {
        "reference": "Specimen/418909882b59a6bf841cc3da0ddf3f8135cebb781550c46ca152df8490087711"
      }
    },
    "request": {
      "method": "PUT",
      "url": "Observation/fb96424cc00fca5db9a5e15f38ff61b952e4b230886be11a5afe31cbc2e23991"
    }
  }, {
    "fullUrl": "Observation/6b1d76c5dd07528535ac1114dc396bff4c72118601775f6aa0eb293fc836b154",
    "resource": {
      "resourceType": "Observation",
      "id": "6b1d76c5dd07528535ac1114dc396bff4c72118601775f6aa0eb293fc836b154",
      "meta": {
        "profile": [ "https://www.medizininformatik-initiative.de/fhir/ext/modul-onko/StructureDefinition/mii-pr-onko-tnm-t-kategorie" ]
      },
      "identifier": [ {
        "system": "https://bzkf.github.io/obds-to-fhir/identifiers/tnm-t-kategorie-observation-id",
        "value": "248_T"
      } ],
      "status": "final",
      "code": {
        "extension": [ {
          "url": "https://www.medizininformatik-initiative.de/fhir/ext/modul-onko/StructureDefinition/mii-ex-onko-tnm-cp-praefix",
          "valueCodeableConcept": {
            "coding": [ {
              "system": "https://www.uicc.org/resources/tnm",
              "code": "c"
            } ]
          }
        } ],
        "coding": [ {
          "system": "http://snomed.info/sct",
          "code": "399504009",
          "display": "cT category (observable entity)"
        } ]
      },
      "subject": {
        "reference": "Patient/9142ee3ff7990f826ada966f03da267e0fe662f73858158f5e868b772cd68730"
      },
      "focus": [ {
        "reference": "Condition/257c056341e9015dfdd7d15cab0a7414b348796b2b01813101078b451af692c6"
      } ],
      "effectiveDateTime": "2020-02-16",
      "valueCodeableConcept": {
        "coding": [ {
          "system": "https://www.uicc.org/resources/tnm",
          "code": "T1c"
        } ]
      },
      "method": {
        "coding": [ {
          "system": "https://www.medizininformatik-initiative.de/fhir/ext/modul-onko/CodeSystem/mii-cs-onko-tnm-version",
          "code": "8"
        } ]
      }
    },
    "request": {
      "method": "PUT",
      "url": "Observation/6b1d76c5dd07528535ac1114dc396bff4c72118601775f6aa0eb293fc836b154"
    }
  }, {
    "fullUrl": "Observation/ef8b475464d1527e69916e6e2d06f5845cbe73a8b6d63ebc4ab53369d08d57ac",
    "resource": {
      "resourceType": "Observation",
      "id": "ef8b475464d1527e69916e6e2d06f5845cbe73a8b6d63ebc4ab53369d08d57ac",
      "meta": {
        "profile": [ "https://www.medizininformatik-initiative.de/fhir/ext/modul-onko/StructureDefinition/mii-pr-onko-tnm-n-kategorie" ]
      },
      "identifier": [ {
        "system": "https://bzkf.github.io/obds-to-fhir/identifiers/tnm-n-kategorie-observation-id",
        "value": "248_N"
      } ],
      "status": "final",
      "code": {
        "extension": [ {
          "url": "https://www.medizininformatik-initiative.de/fhir/ext/modul-onko/StructureDefinition/mii-ex-onko-tnm-cp-praefix",
          "valueCodeableConcept": {
            "coding": [ {
              "system": "https://www.uicc.org/resources/tnm",
              "code": "c"
            } ]
          }
        } ],
        "coding": [ {
          "system": "http://snomed.info/sct",
          "code": "399534004",
          "display": "cN category (observable entity)"
        } ]
      },
      "subject": {
        "reference": "Patient/9142ee3ff7990f826ada966f03da267e0fe662f73858158f5e868b772cd68730"
      },
      "focus": [ {
        "reference": "Condition/257c056341e9015dfdd7d15cab0a7414b348796b2b01813101078b451af692c6"
      } ],
      "effectiveDateTime": "2020-02-16",
      "valueCodeableConcept": {
        "coding": [ {
          "system": "https://www.uicc.org/resources/tnm",
          "code": "N0"
        } ]
      },
      "method": {
        "coding": [ {
          "system": "https://www.medizininformatik-initiative.de/fhir/ext/modul-onko/CodeSystem/mii-cs-onko-tnm-version",
          "code": "8"
        } ]
      }
    },
    "request": {
      "method": "PUT",
      "url": "Observation/ef8b475464d1527e69916e6e2d06f5845cbe73a8b6d63ebc4ab53369d08d57ac"
    }
  }, {
    "fullUrl": "Observation/d13a6d58cef4459e14476bd9fd536ff2e3f3684942a30a45691dd9a6ae69683f",
    "resource": {
      "resourceType": "Observation",
      "id": "d13a6d58cef4459e14476bd9fd536ff2e3f3684942a30a45691dd9a6ae69683f",
      "meta": {
        "profile": [ "https://www.medizininformatik-initiative.de/fhir/ext/modul-onko/StructureDefinition/mii-pr-onko-tnm-m-kategorie" ]
      },
      "identifier": [ {
        "system": "https://bzkf.github.io/obds-to-fhir/identifiers/tnm-m-kategorie-observation-id",
        "value": "248_M"
      } ],
      "status": "final",
      "code": {
        "extension": [ {
          "url": "https://www.medizininformatik-initiative.de/fhir/ext/modul-onko/StructureDefinition/mii-ex-onko-tnm-cp-praefix",
          "valueCodeableConcept": {
            "coding": [ {
              "system": "https://www.uicc.org/resources/tnm",
              "code": "c"
            } ]
          }
        } ],
        "coding": [ {
          "system": "http://snomed.info/sct",
          "code": "399387003",
          "display": "cM category (observable entity)"
        } ]
      },
      "subject": {
        "reference": "Patient/9142ee3ff7990f826ada966f03da267e0fe662f73858158f5e868b772cd68730"
      },
      "focus": [ {
        "reference": "Condition/257c056341e9015dfdd7d15cab0a7414b348796b2b01813101078b451af692c6"
      } ],
      "effectiveDateTime": "2020-02-16",
      "valueCodeableConcept": {
        "coding": [ {
          "system": "https://www.uicc.org/resources/tnm",
          "code": "M0"
        } ]
      },
      "method": {
        "coding": [ {
          "system": "https://www.medizininformatik-initiative.de/fhir/ext/modul-onko/CodeSystem/mii-cs-onko-tnm-version",
          "code": "8"
        } ]
      }
    },
    "request": {
      "method": "PUT",
      "url": "Observation/d13a6d58cef4459e14476bd9fd536ff2e3f3684942a30a45691dd9a6ae69683f"
    }
  }, {
    "fullUrl": "Observation/ecd38f632167024ba1e08076cbe26c9e9a2c175928a78ce9c8ef23af7b716bce",
    "resource": {
      "resourceType": "Observation",
      "id": "ecd38f632167024ba1e08076cbe26c9e9a2c175928a78ce9c8ef23af7b716bce",
      "meta": {
        "profile": [ "https://www.medizininformatik-initiative.de/fhir/ext/modul-onko/StructureDefinition/mii-pr-onko-tnm-klassifikation" ]
      },
      "identifier": [ {
        "system": "https://bzkf.github.io/obds-to-fhir/identifiers/tnm-grouping-observation-id",
        "value": "248"
      } ],
      "status": "final",
      "code": {
        "coding": [ {
          "system": "http://snomed.info/sct",
          "code": "399537006",
          "display": "Clinical TNM stage grouping"
        } ]
      },
      "subject": {
        "reference": "Patient/9142ee3ff7990f826ada966f03da267e0fe662f73858158f5e868b772cd68730"
      },
      "focus": [ {
        "reference": "Condition/257c056341e9015dfdd7d15cab0a7414b348796b2b01813101078b451af692c6"
      } ],
      "effectiveDateTime": "2020-02-16",
      "method": {
        "coding": [ {
          "system": "https://www.medizininformatik-initiative.de/fhir/ext/modul-onko/CodeSystem/mii-cs-onko-tnm-version",
          "code": "8"
        } ]
      },
      "hasMember": [ {
        "reference": "Observation/6b1d76c5dd07528535ac1114dc396bff4c72118601775f6aa0eb293fc836b154"
      }, {
        "reference": "Observation/ef8b475464d1527e69916e6e2d06f5845cbe73a8b6d63ebc4ab53369d08d57ac"
      }, {
        "reference": "Observation/d13a6d58cef4459e14476bd9fd536ff2e3f3684942a30a45691dd9a6ae69683f"
      } ]
    },
    "request": {
      "method": "PUT",
      "url": "Observation/ecd38f632167024ba1e08076cbe26c9e9a2c175928a78ce9c8ef23af7b716bce"
    }
  }, {
    "fullUrl": "Procedure/5d82b21267e6777420638553ff71b16d4a62bf16027d31ca8ae6f0f2272b9eb3",
    "resource": {
      "resourceType": "Procedure",
      "id": "5d82b21267e6777420638553ff71b16d4a62bf16027d31ca8ae6f0f2272b9eb3",
      "meta": {
        "profile": [ "https://www.medizininformatik-initiative.de/fhir/ext/modul-onko/StructureDefinition/mii-pr-onko-operation" ]
      },
      "extension": [ {
        "url": "https://www.medizininformatik-initiative.de/fhir/ext/modul-onko/StructureDefinition/mii-ex-onko-operation-intention",
        "valueCodeableConcept": {
          "coding": [ {
            "system": "https://www.medizininformatik-initiative.de/fhir/ext/modul-onko/CodeSystem/mii-cs-onko-intention",
            "code": "K"
          } ]
        }
      } ],
      "identifier": [ {
        "system": "https://bzkf.github.io/obds-to-fhir/identifiers/operation-procedure-id",
        "value": "1415-870.a2"
      } ],
      "status": "completed",
      "category": {
        "coding": [ {
          "system": "http://snomed.info/sct",
          "code": "387713003",
          "display": "Surgical procedure"
        } ]
      },
      "code": {
        "coding": [ {
          "system": "http://fhir.de/CodeSystem/bfarm/ops",
          "version": "2020",
          "code": "5-870.a2"
        } ]
      },
      "subject": {
        "reference": "Patient/9142ee3ff7990f826ada966f03da267e0fe662f73858158f5e868b772cd68730"
      },
      "performedDateTime": "2020-03-02",
      "reasonReference": [ {
        "reference": "Condition/257c056341e9015dfdd7d15cab0a7414b348796b2b01813101078b451af692c6"
      } ],
      "outcome": {
        "coding": [ {
          "system": "https://www.medizininformatik-initiative.de/fhir/ext/modul-onko/CodeSystem/mii-cs-onko-residualstatus",
          "code": "R0"
        } ]
      }
    },
    "request": {
      "method": "PUT",
      "url": "Procedure/5d82b21267e6777420638553ff71b16d4a62bf16027d31ca8ae6f0f2272b9eb3"
    }
  }, {
    "fullUrl": "Procedure/a740bc0d84f8b7e842a49e8591e7e2f4fe91b2f8c6ef364f7e157db48998dc0c",
    "resource": {
      "resourceType": "Procedure",
      "id": "a740bc0d84f8b7e842a49e8591e7e2f4fe91b2f8c6ef364f7e157db48998dc0c",
      "meta": {
        "profile": [ "https://www.medizininformatik-initiative.de/fhir/ext/modul-onko/StructureDefinition/mii-pr-onko-operation" ]
      },
      "extension": [ {
        "url": "https://www.medizininformatik-initiative.de/fhir/ext/modul-onko/StructureDefinition/mii-ex-onko-operation-intention",
        "valueCodeableConcept": {
          "coding": [ {
            "system": "https://www.medizininformatik-initiative.de/fhir/ext/modul-onko/CodeSystem/mii-cs-onko-intention",
            "code": "K"
          } ]
        }
      } ],
      "identifier": [ {
        "system": "https://bzkf.github.io/obds-to-fhir/identifiers/operation-procedure-id",
        "value": "1415-402.12"
      } ],
      "status": "completed",
      "category": {
        "coding": [ {
          "system": "http://snomed.info/sct",
          "code": "387713003",
          "display": "Surgical procedure"
        } ]
      },
      "code": {
        "coding": [ {
          "system": "http://fhir.de/CodeSystem/bfarm/ops",
          "version": "2020",
          "code": "5-402.12"
        } ]
      },
      "subject": {
        "reference": "Patient/9142ee3ff7990f826ada966f03da267e0fe662f73858158f5e868b772cd68730"
      },
      "performedDateTime": "2020-03-02",
      "reasonReference": [ {
        "reference": "Condition/257c056341e9015dfdd7d15cab0a7414b348796b2b01813101078b451af692c6"
      } ],
      "outcome": {
        "coding": [ {
          "system": "https://www.medizininformatik-initiative.de/fhir/ext/modul-onko/CodeSystem/mii-cs-onko-residualstatus",
          "code": "R0"
        } ]
      }
    },
    "request": {
      "method": "PUT",
      "url": "Procedure/a740bc0d84f8b7e842a49e8591e7e2f4fe91b2f8c6ef364f7e157db48998dc0c"
    }
  }, {
    "fullUrl": "Observation/93d9505f2f1c6fb54202a03603290a65c50268b03881409350faf64c12a72af2",
    "resource": {
      "resourceType": "Observation",
      "id": "93d9505f2f1c6fb54202a03603290a65c50268b03881409350faf64c12a72af2",
      "identifier": [ {
        "system": "https://bzkf.github.io/obds-to-fhir/identifiers/residualstatus-observation-id",
        "value": "141"
      } ],
      "status": "final",
      "code": {
        "coding": [ {
          "system": "http://loinc.org",
          "code": "84892-9"
        } ]
      },
      "subject": {
        "reference": "Patient/9142ee3ff7990f826ada966f03da267e0fe662f73858158f5e868b772cd68730"
      },
      "focus": [ {
        "reference": "Condition/257c056341e9015dfdd7d15cab0a7414b348796b2b01813101078b451af692c6"
      } ],
      "effectiveDateTime": "2020-03-02",
      "valueCodeableConcept": {
        "coding": [ {
          "system": "https://www.medizininformatik-initiative.de/fhir/ext/modul-onko/CodeSystem/mii-cs-onko-residualstatus",
          "code": "R0"
        } ]
      }
    },
    "request": {
      "method": "PUT",
      "url": "Observation/93d9505f2f1c6fb54202a03603290a65c50268b03881409350faf64c12a72af2"
    }
  }, {
    "fullUrl": "Specimen/4b5091309dc551db425933e698c78b563e03929807c549d73c2f14801d1752ea",
    "resource": {
      "resourceType": "Specimen",
      "id": "4b5091309dc551db425933e698c78b563e03929807c549d73c2f14801d1752ea",
      "meta": {
        "profile": [ "https://www.medizininformatik-initiative.de/fhir/ext/modul-onko/StructureDefinition/mii-pr-onko-specimen" ]
      },
      "identifier": [ {
        "system": "https://bzkf.github.io/obds-to-fhir/identifiers/specimen-id",
        "value": "262"
      } ],
      "accessionIdentifier": {
        "value": "H1967/2020"
      },
      "subject": {
        "reference": "Patient/9142ee3ff7990f826ada966f03da267e0fe662f73858158f5e868b772cd68730"
      },
      "collection": {
        "collectedDateTime": "2020-03-05"
      }
    },
    "request": {
      "method": "PUT",
      "url": "Specimen/4b5091309dc551db425933e698c78b563e03929807c549d73c2f14801d1752ea"
    }
  }, {
    "fullUrl": "Observation/cf82140c1b4ba3a6ac6428a89f3649c48b5157a41eca2873a30501d6687166d6",
    "resource": {
      "resourceType": "Observation",
      "id": "cf82140c1b4ba3a6ac6428a89f3649c48b5157a41eca2873a30501d6687166d6",
      "meta": {
        "profile": [ "https://www.medizininformatik-initiative.de/fhir/ext/modul-onko/StructureDefinition/mii-pr-onko-histologie-icdo3" ]
      },
      "identifier": [ {
        "system": "https://bzkf.github.io/obds-to-fhir/identifiers/observation-histologie-id",
        "value": "262-ICDO3-8500/3"
      } ],
      "status": "final",
      "code": {
        "coding": [ {
          "system": "http://loinc.org",
          "code": "59847-4"
        } ]
      },
      "subject": {
        "reference": "Patient/9142ee3ff7990f826ada966f03da267e0fe662f73858158f5e868b772cd68730"
      },
      "focus": [ {
        "reference": "Condition/257c056341e9015dfdd7d15cab0a7414b348796b2b01813101078b451af692c6"
      } ],
      "effectiveDateTime": "2020-03-05",
      "valueCodeableConcept": {
        "coding": [ {
          "system": "http://terminology.hl7.org/CodeSystem/icd-o-3",
          "version": "31",
          "code": "8500/3"
        } ],
        "text": "Invasives duktales Karzinom o.n.A."
      },
      "specimen": {
        "reference": "Specimen/4b5091309dc551db425933e698c78b563e03929807c549d73c2f14801d1752ea"
      }
    },
    "request": {
      "method": "PUT",
      "url": "Observation/cf82140c1b4ba3a6ac6428a89f3649c48b5157a41eca2873a30501d6687166d6"
    }
  }, {
    "fullUrl": "Observation/00116f71918e2819a3ce67e8fe91cefac107beaf7183f1e6353ea7615dba4a0e",
    "resource": {
      "resourceType": "Observation",
      "id": "00116f71918e2819a3ce67e8fe91cefac107beaf7183f1e6353ea7615dba4a0e",
      "meta": {
        "profile": [ "https://www.medizininformatik-initiative.de/fhir/ext/modul-onko/StructureDefinition/mii-pr-onko-grading" ]
      },
      "identifier": [ {
        "system": "https://bzkf.github.io/obds-to-fhir/identifiers/grading-observation-id",
        "value": "262-grading"
      } ],
      "status": "final",
      "category": [ {
        "coding": [ {
          "system": "http://terminology.hl7.org/CodeSystem/observation-category",
          "code": "laboratory"
        } ]
      } ],
      "code": {
        "coding": [ {
          "system": "http://loinc.org",
          "code": "33732-9"
        }, {
          "system": "http://snomed.info/sct",
          "code": "371469007"
        } ]
      },
      "subject": {
        "reference": "Patient/9142ee3ff7990f826ada966f03da267e0fe662f73858158f5e868b772cd68730"
      },
      "focus": [ {
        "reference": "Condition/257c056341e9015dfdd7d15cab0a7414b348796b2b01813101078b451af692c6"
      } ],
      "effectiveDateTime": "2020-03-05",
      "valueCodeableConcept": {
        "coding": [ {
          "system": "https://www.medizininformatik-initiative.de/fhir/ext/modul-onko/CodeSystem/mii-cs-onko-grading",
          "code": "2"
        } ]
      },
      "specimen": {
        "reference": "Specimen/4b5091309dc551db425933e698c78b563e03929807c549d73c2f14801d1752ea"
      }
    },
    "request": {
      "method": "PUT",
      "url": "Observation/00116f71918e2819a3ce67e8fe91cefac107beaf7183f1e6353ea7615dba4a0e"
    }
  }, {
    "fullUrl": "Observation/ff4af73093731f45f8297de2106a4953c4b8eb6371b0821f349dd3adb7baf81f",
    "resource": {
      "resourceType": "Observation",
      "id": "ff4af73093731f45f8297de2106a4953c4b8eb6371b0821f349dd3adb7baf81f",
      "meta": {
        "profile": [ "https://www.medizininformatik-initiative.de/fhir/ext/modul-onko/StructureDefinition/mii-pr-onko-anzahl-befallene-lymphknoten" ]
      },
      "identifier": [ {
        "system": "https://bzkf.github.io/obds-to-fhir/identifiers/observation-histologie-id",
        "value": "262_befallen"
      } ],
      "status": "final",
      "category": [ {
        "coding": [ {
          "system": "http://terminology.hl7.org/CodeSystem/observation-category",
          "code": "laboratory"
        } ]
      } ],
      "code": {
        "coding": [ {
          "system": "http://loinc.org",
          "code": "21893-3"
        }, {
          "system": "http://snomed.info/sct",
          "code": "443527007"
        } ]
      },
      "subject": {
        "reference": "Patient/9142ee3ff7990f826ada966f03da267e0fe662f73858158f5e868b772cd68730"
      },
      "focus": [ {
        "reference": "Condition/257c056341e9015dfdd7d15cab0a7414b348796b2b01813101078b451af692c6"
      } ],
      "effectiveDateTime": "2020-03-05",
      "valueQuantity": {
        "value": 4,
        "unit": "#",
        "system": "http://unitsofmeasure.org",
        "code": "1"
      },
      "specimen": {
        "reference": "Specimen/4b5091309dc551db425933e698c78b563e03929807c549d73c2f14801d1752ea"
      }
    },
    "request": {
      "method": "PUT",
      "url": "Observation/ff4af73093731f45f8297de2106a4953c4b8eb6371b0821f349dd3adb7baf81f"
    }
  }, {
    "fullUrl": "Observation/bd3ce1b682f3002444520e74887fa8a81129c2885c62d427ef57c827fba62d28",
    "resource": {
      "resourceType": "Observation",
      "id": "bd3ce1b682f3002444520e74887fa8a81129c2885c62d427ef57c827fba62d28",
      "meta": {
        "profile": [ "https://www.medizininformatik-initiative.de/fhir/ext/modul-onko/StructureDefinition/mii-pr-onko-anzahl-untersuchte-lymphknoten" ]
      },
      "identifier": [ {
        "system": "https://bzkf.github.io/obds-to-fhir/identifiers/observation-histologie-id",
        "value": "262_untersucht"
      } ],
      "status": "final",
      "category": [ {
        "coding": [ {
          "system": "http://terminology.hl7.org/CodeSystem/observation-category",
          "code": "laboratory"
        } ]
      } ],
      "code": {
        "coding": [ {
          "system": "http://loinc.org",
          "code": "21894-1"
        }, {
          "system": "http://snomed.info/sct",
          "code": "444025001"
        } ]
      },
      "subject": {
        "reference": "Patient/9142ee3ff7990f826ada966f03da267e0fe662f73858158f5e868b772cd68730"
      },
      "focus": [ {
        "reference": "Condition/257c056341e9015dfdd7d15cab0a7414b348796b2b01813101078b451af692c6"
      } ],
      "effectiveDateTime": "2020-03-05",
      "valueQuantity": {
        "value": 13,
        "unit": "#",
        "system": "http://unitsofmeasure.org",
        "code": "1"
      },
      "specimen": {
        "reference": "Specimen/4b5091309dc551db425933e698c78b563e03929807c549d73c2f14801d1752ea"
      }
    },
    "request": {
      "method": "PUT",
      "url": "Observation/bd3ce1b682f3002444520e74887fa8a81129c2885c62d427ef57c827fba62d28"
    }
  }, {
    "fullUrl": "Observation/13e64325a08289c1331e73299f10059db5fb13991b4fbf47d64cb73a7e8a156d",
    "resource": {
      "resourceType": "Observation",
      "id": "13e64325a08289c1331e73299f10059db5fb13991b4fbf47d64cb73a7e8a156d",
      "meta": {
        "profile": [ "https://www.medizininformatik-initiative.de/fhir/ext/modul-onko/StructureDefinition/mii-pr-onko-tnm-t-kategorie" ]
      },
      "identifier": [ {
        "system": "https://bzkf.github.io/obds-to-fhir/identifiers/tnm-t-kategorie-observation-id",
        "value": "249_T"
      } ],
      "status": "final",
      "code": {
        "extension": [ {
          "url": "https://www.medizininformatik-initiative.de/fhir/ext/modul-onko/StructureDefinition/mii-ex-onko-tnm-cp-praefix",
          "valueCodeableConcept": {
            "coding": [ {
              "system": "https://www.uicc.org/resources/tnm",
              "code": "p"
            } ]
          }
        } ],
        "coding": [ {
          "system": "http://snomed.info/sct",
          "code": "384625004",
          "display": "pT category (observable entity)"
        } ]
      },
      "subject": {
        "reference": "Patient/9142ee3ff7990f826ada966f03da267e0fe662f73858158f5e868b772cd68730"
      },
      "focus": [ {
        "reference": "Condition/257c056341e9015dfdd7d15cab0a7414b348796b2b01813101078b451af692c6"
      } ],
      "effectiveDateTime": "2020-03-02",
      "valueCodeableConcept": {
        "coding": [ {
          "system": "https://www.uicc.org/resources/tnm",
          "code": "T2"
        } ]
      },
      "method": {
        "coding": [ {
          "system": "https://www.medizininformatik-initiative.de/fhir/ext/modul-onko/CodeSystem/mii-cs-onko-tnm-version",
          "code": "8"
        } ]
      }
    },
    "request": {
      "method": "PUT",
      "url": "Observation/13e64325a08289c1331e73299f10059db5fb13991b4fbf47d64cb73a7e8a156d"
    }
  }, {
    "fullUrl": "Observation/c4417b7e7b4f38e0db4329046abc84a7b19c50a961941a145944790920b64924",
    "resource": {
      "resourceType": "Observation",
      "id": "c4417b7e7b4f38e0db4329046abc84a7b19c50a961941a145944790920b64924",
      "meta": {
        "profile": [ "https://www.medizininformatik-initiative.de/fhir/ext/modul-onko/StructureDefinition/mii-pr-onko-tnm-n-kategorie" ]
      },
      "identifier": [ {
        "system": "https://bzkf.github.io/obds-to-fhir/identifiers/tnm-n-kategorie-observation-id",
        "value": "249_N"
      } ],
      "status": "final",
      "code": {
        "extension": [ {
          "url": "https://www.medizininformatik-initiative.de/fhir/ext/modul-onko/StructureDefinition/mii-ex-onko-tnm-cp-praefix",
          "valueCodeableConcept": {
            "coding": [ {
              "system": "https://www.uicc.org/resources/tnm",
              "code": "p"
            } ]
          }
        } ],
        "coding": [ {
          "system": "http://snomed.info/sct",
          "code": "371494008",
          "display": "pN category (observable entity)"
        } ]
      },
      "subject": {
        "reference": "Patient/9142ee3ff7990f826ada966f03da267e0fe662f73858158f5e868b772cd68730"
      },
      "focus": [ {
        "reference": "Condition/257c056341e9015dfdd7d15cab0a7414b348796b2b01813101078b451af692c6"
      } ],
      "effectiveDateTime": "2020-03-02",
      "valueCodeableConcept": {
        "coding": [ {
          "system": "https://www.uicc.org/resources/tnm",
          "code": "N2"
        } ]
      },
      "method": {
        "coding": [ {
          "system": "https://www.medizininformatik-initiative.de/fhir/ext/modul-onko/CodeSystem/mii-cs-onko-tnm-version",
          "code": "8"
        } ]
      }
    },
    "request": {
      "method": "PUT",
      "url": "Observation/c4417b7e7b4f38e0db4329046abc84a7b19c50a961941a145944790920b64924"
    }
  }, {
    "fullUrl": "Observation/6619704d358a02316235f8540556a7e95864a2ae6289471f86c1deee0eb71e76",
    "resource": {
      "resourceType": "Observation",
      "id": "6619704d358a02316235f8540556a7e95864a2ae6289471f86c1deee0eb71e76",
      "meta": {
        "profile": [ "https://www.medizininformatik-initiative.de/fhir/ext/modul-onko/StructureDefinition/mii-pr-onko-tnm-m-kategorie" ]
      },
      "identifier": [ {
        "system": "https://bzkf.github.io/obds-to-fhir/identifiers/tnm-m-kategorie-observation-id",
        "value": "249_M"
      } ],
      "status": "final",
      "code": {
        "extension": [ {
          "url": "https://www.medizininformatik-initiative.de/fhir/ext/modul-onko/StructureDefinition/mii-ex-onko-tnm-cp-praefix",
          "valueCodeableConcept": {
            "coding": [ {
              "system": "https://www.uicc.org/resources/tnm",
              "code": "c"
            } ]
          }
        } ],
        "coding": [ {
          "system": "http://snomed.info/sct",
          "code": "399387003",
          "display": "cM category (observable entity)"
        } ]
      },
      "subject": {
        "reference": "Patient/9142ee3ff7990f826ada966f03da267e0fe662f73858158f5e868b772cd68730"
      },
      "focus": [ {
        "reference": "Condition/257c056341e9015dfdd7d15cab0a7414b348796b2b01813101078b451af692c6"
      } ],
      "effectiveDateTime": "2020-03-02",
      "valueCodeableConcept": {
        "coding": [ {
          "system": "https://www.uicc.org/resources/tnm",
          "code": "M0"
        } ]
      },
      "method": {
        "coding": [ {
          "system": "https://www.medizininformatik-initiative.de/fhir/ext/modul-onko/CodeSystem/mii-cs-onko-tnm-version",
          "code": "8"
        } ]
      }
    },
    "request": {
      "method": "PUT",
      "url": "Observation/6619704d358a02316235f8540556a7e95864a2ae6289471f86c1deee0eb71e76"
    }
  }, {
    "fullUrl": "Observation/741c1e2e3cc05ae836490fc01c10f4511a6b4155356a5b57f85b07ba98ea1c53",
    "resource": {
      "resourceType": "Observation",
      "id": "741c1e2e3cc05ae836490fc01c10f4511a6b4155356a5b57f85b07ba98ea1c53",
      "meta": {
        "profile": [ "https://www.medizininformatik-initiative.de/fhir/ext/modul-onko/StructureDefinition/mii-pr-onko-tnm-m-symbol" ]
      },
      "identifier": [ {
        "system": "https://bzkf.github.io/obds-to-fhir/identifiers/tnm-m-symbol-observation-id",
        "value": "249_m"
      } ],
      "status": "final",
      "code": {
        "coding": [ {
          "system": "http://loinc.org",
          "code": "42030-7"
        } ]
      },
      "subject": {
        "reference": "Patient/9142ee3ff7990f826ada966f03da267e0fe662f73858158f5e868b772cd68730"
      },
      "focus": [ {
        "reference": "Condition/257c056341e9015dfdd7d15cab0a7414b348796b2b01813101078b451af692c6"
      } ],
      "effectiveDateTime": "2020-03-02",
      "valueCodeableConcept": {
        "coding": [ {
          "system": "https://www.uicc.org/resources/tnm",
          "code": "2"
        } ]
      },
      "method": {
        "coding": [ {
          "system": "https://www.medizininformatik-initiative.de/fhir/ext/modul-onko/CodeSystem/mii-cs-onko-tnm-version",
          "code": "8"
        } ]
      }
    },
    "request": {
      "method": "PUT",
      "url": "Observation/741c1e2e3cc05ae836490fc01c10f4511a6b4155356a5b57f85b07ba98ea1c53"
    }
  }, {
    "fullUrl": "Observation/9474b11a087d41654acb7fb371355b2279ea45e1e7bbbd7e51a77c27adf24091",
    "resource": {
      "resourceType": "Observation",
      "id": "9474b11a087d41654acb7fb371355b2279ea45e1e7bbbd7e51a77c27adf24091",
      "meta": {
        "profile": [ "https://www.medizininformatik-initiative.de/fhir/ext/modul-onko/StructureDefinition/mii-pr-onko-tnm-l-kategorie" ]
      },
      "identifier": [ {
        "system": "https://bzkf.github.io/obds-to-fhir/identifiers/tnm-l-kategorie-observation-id",
        "value": "249_L"
      } ],
      "status": "final",
      "code": {
        "coding": [ {
          "system": "http://snomed.info/sct",
          "code": "395715009"
        } ]
      },
      "subject": {
        "reference": "Patient/9142ee3ff7990f826ada966f03da267e0fe662f73858158f5e868b772cd68730"
      },
      "focus": [ {
        "reference": "Condition/257c056341e9015dfdd7d15cab0a7414b348796b2b01813101078b451af692c6"
      } ],
      "effectiveDateTime": "2020-03-02",
      "valueCodeableConcept": {
        "coding": [ {
          "system": "https://www.uicc.org/resources/tnm",
          "code": "L1"
        } ]
      },
      "method": {
        "coding": [ {
          "system": "https://www.medizininformatik-initiative.de/fhir/ext/modul-onko/CodeSystem/mii-cs-onko-tnm-version",
          "code": "8"
        } ]
      }
    },
    "request": {
      "method": "PUT",
      "url": "Observation/9474b11a087d41654acb7fb371355b2279ea45e1e7bbbd7e51a77c27adf24091"
    }
  }, {
    "fullUrl": "Observation/1468e7d63799fa95a6b2bebe1ad427c0b531ca874cb440d98a6cba6e9aef65b4",
    "resource": {
      "resourceType": "Observation",
      "id": "1468e7d63799fa95a6b2bebe1ad427c0b531ca874cb440d98a6cba6e9aef65b4",
      "meta": {
        "profile": [ "https://www.medizininformatik-initiative.de/fhir/ext/modul-onko/StructureDefinition/mii-pr-onko-tnm-pn-kategorie" ]
      },
      "identifier": [ {
        "system": "https://bzkf.github.io/obds-to-fhir/identifiers/tnm-pn-kategorie-observation-id",
        "value": "249_Pn"
      } ],
      "status": "final",
      "code": {
        "coding": [ {
          "system": "http://snomed.info/sct",
          "code": "371513001"
        } ]
      },
      "subject": {
        "reference": "Patient/9142ee3ff7990f826ada966f03da267e0fe662f73858158f5e868b772cd68730"
      },
      "focus": [ {
        "reference": "Condition/257c056341e9015dfdd7d15cab0a7414b348796b2b01813101078b451af692c6"
      } ],
      "effectiveDateTime": "2020-03-02",
      "valueCodeableConcept": {
        "coding": [ {
          "system": "https://www.uicc.org/resources/tnm",
          "code": "Pn0"
        } ]
      },
      "method": {
        "coding": [ {
          "system": "https://www.medizininformatik-initiative.de/fhir/ext/modul-onko/CodeSystem/mii-cs-onko-tnm-version",
          "code": "8"
        } ]
      }
    },
    "request": {
      "method": "PUT",
      "url": "Observation/1468e7d63799fa95a6b2bebe1ad427c0b531ca874cb440d98a6cba6e9aef65b4"
    }
  }, {
    "fullUrl": "Observation/52c358eb6a81423b3319b5df1443b6b163641d7b89091a932141216b5f284ad3",
    "resource": {
      "resourceType": "Observation",
      "id": "52c358eb6a81423b3319b5df1443b6b163641d7b89091a932141216b5f284ad3",
      "meta": {
        "profile": [ "https://www.medizininformatik-initiative.de/fhir/ext/modul-onko/StructureDefinition/mii-pr-onko-tnm-v-kategorie" ]
      },
      "identifier": [ {
        "system": "https://bzkf.github.io/obds-to-fhir/identifiers/tnm-v-kategorie-observation-id",
        "value": "249_V"
      } ],
      "status": "final",
      "code": {
        "coding": [ {
          "system": "http://snomed.info/sct",
          "code": "371493002"
        } ]
      },
      "subject": {
        "reference": "Patient/9142ee3ff7990f826ada966f03da267e0fe662f73858158f5e868b772cd68730"
      },
      "focus": [ {
        "reference": "Condition/257c056341e9015dfdd7d15cab0a7414b348796b2b01813101078b451af692c6"
      } ],
      "effectiveDateTime": "2020-03-02",
      "valueCodeableConcept": {
        "coding": [ {
          "system": "https://www.uicc.org/resources/tnm",
          "code": "V0"
        } ]
      },
      "method": {
        "coding": [ {
          "system": "https://www.medizininformatik-initiative.de/fhir/ext/modul-onko/CodeSystem/mii-cs-onko-tnm-version",
          "code": "8"
        } ]
      }
    },
    "request": {
      "method": "PUT",
      "url": "Observation/52c358eb6a81423b3319b5df1443b6b163641d7b89091a932141216b5f284ad3"
    }
  }, {
    "fullUrl": "Observation/9cc0d8877fcda3726e1a475018ca79ddce7a186561e8412dcfd97e1c00d92916",
    "resource": {
      "resourceType": "Observation",
      "id": "9cc0d8877fcda3726e1a475018ca79ddce7a186561e8412dcfd97e1c00d92916",
      "meta": {
        "profile": [ "https://www.medizininformatik-initiative.de/fhir/ext/modul-onko/StructureDefinition/mii-pr-onko-tnm-klassifikation" ]
      },
      "identifier": [ {
        "system": "https://bzkf.github.io/obds-to-fhir/identifiers/tnm-grouping-observation-id",
        "value": "249"
      } ],
      "status": "final",
      "code": {
        "coding": [ {
          "system": "http://snomed.info/sct",
          "code": "399390009",
          "display": "TNM stage grouping"
        } ]
      },
      "subject": {
        "reference": "Patient/9142ee3ff7990f826ada966f03da267e0fe662f73858158f5e868b772cd68730"
      },
      "focus": [ {
        "reference": "Condition/257c056341e9015dfdd7d15cab0a7414b348796b2b01813101078b451af692c6"
      } ],
      "effectiveDateTime": "2020-03-02",
      "valueCodeableConcept": {
        "coding": [ {
          "system": "https://www.uicc.org/resources/tnm",
          "code": "IIIA",
          "display": "Stadium IIIA"
        } ]
      },
      "method": {
        "coding": [ {
          "system": "https://www.medizininformatik-initiative.de/fhir/ext/modul-onko/CodeSystem/mii-cs-onko-tnm-version",
          "code": "8"
        } ]
      },
      "hasMember": [ {
        "reference": "Observation/13e64325a08289c1331e73299f10059db5fb13991b4fbf47d64cb73a7e8a156d"
      }, {
        "reference": "Observation/c4417b7e7b4f38e0db4329046abc84a7b19c50a961941a145944790920b64924"
      }, {
        "reference": "Observation/6619704d358a02316235f8540556a7e95864a2ae6289471f86c1deee0eb71e76"
      }, {
        "reference": "Observation/741c1e2e3cc05ae836490fc01c10f4511a6b4155356a5b57f85b07ba98ea1c53"
      }, {
        "reference": "Observation/9474b11a087d41654acb7fb371355b2279ea45e1e7bbbd7e51a77c27adf24091"
      }, {
        "reference": "Observation/1468e7d63799fa95a6b2bebe1ad427c0b531ca874cb440d98a6cba6e9aef65b4"
      }, {
        "reference": "Observation/52c358eb6a81423b3319b5df1443b6b163641d7b89091a932141216b5f284ad3"
      } ]
    },
    "request": {
      "method": "PUT",
      "url": "Observation/9cc0d8877fcda3726e1a475018ca79ddce7a186561e8412dcfd97e1c00d92916"
    }
  }, {
    "fullUrl": "Procedure/88ea7e639f67d5ba830f13b8c67e1229df4075e1fd0f7488030704dcb16912f5",
    "resource": {
      "resourceType": "Procedure",
      "id": "88ea7e639f67d5ba830f13b8c67e1229df4075e1fd0f7488030704dcb16912f5",
      "meta": {
        "profile": [ "https://www.medizininformatik-initiative.de/fhir/ext/modul-onko/StructureDefinition/mii-pr-onko-operation" ]
      },
      "extension": [ {
        "url": "https://www.medizininformatik-initiative.de/fhir/ext/modul-onko/StructureDefinition/mii-ex-onko-operation-intention",
        "valueCodeableConcept": {
          "coding": [ {
            "system": "https://www.medizininformatik-initiative.de/fhir/ext/modul-onko/CodeSystem/mii-cs-onko-intention",
            "code": "K"
          } ]
        }
      } ],
      "identifier": [ {
        "system": "https://bzkf.github.io/obds-to-fhir/identifiers/operation-procedure-id",
        "value": "1425-870.a1"
      } ],
      "status": "completed",
      "category": {
        "coding": [ {
          "system": "http://snomed.info/sct",
          "code": "387713003",
          "display": "Surgical procedure"
        } ]
      },
      "code": {
        "coding": [ {
          "system": "http://fhir.de/CodeSystem/bfarm/ops",
          "version": "2020",
          "code": "5-870.a1"
        } ]
      },
      "subject": {
        "reference": "Patient/9142ee3ff7990f826ada966f03da267e0fe662f73858158f5e868b772cd68730"
      },
      "performedDateTime": "2020-02-20",
      "reasonReference": [ {
        "reference": "Condition/257c056341e9015dfdd7d15cab0a7414b348796b2b01813101078b451af692c6"
      } ],
      "outcome": {
        "coding": [ {
          "system": "https://www.medizininformatik-initiative.de/fhir/ext/modul-onko/CodeSystem/mii-cs-onko-residualstatus",
          "code": "R1"
        } ]
      }
    },
    "request": {
      "method": "PUT",
      "url": "Procedure/88ea7e639f67d5ba830f13b8c67e1229df4075e1fd0f7488030704dcb16912f5"
    }
  }, {
    "fullUrl": "Procedure/331bcbb7adf285c2a0c75edc7f0d27d8ed4676fcb0f1795e9bd09dfe694331b4",
    "resource": {
      "resourceType": "Procedure",
      "id": "331bcbb7adf285c2a0c75edc7f0d27d8ed4676fcb0f1795e9bd09dfe694331b4",
      "meta": {
        "profile": [ "https://www.medizininformatik-initiative.de/fhir/ext/modul-onko/StructureDefinition/mii-pr-onko-operation" ]
      },
      "extension": [ {
        "url": "https://www.medizininformatik-initiative.de/fhir/ext/modul-onko/StructureDefinition/mii-ex-onko-operation-intention",
        "valueCodeableConcept": {
          "coding": [ {
            "system": "https://www.medizininformatik-initiative.de/fhir/ext/modul-onko/CodeSystem/mii-cs-onko-intention",
            "code": "K"
          } ]
        }
      } ],
      "identifier": [ {
        "system": "https://bzkf.github.io/obds-to-fhir/identifiers/operation-procedure-id",
        "value": "1425-401.11"
      } ],
      "status": "completed",
      "category": {
        "coding": [ {
          "system": "http://snomed.info/sct",
          "code": "387713003",
          "display": "Surgical procedure"
        } ]
      },
      "code": {
        "coding": [ {
          "system": "http://fhir.de/CodeSystem/bfarm/ops",
          "version": "2020",
          "code": "5-401.11"
        } ]
      },
      "subject": {
        "reference": "Patient/9142ee3ff7990f826ada966f03da267e0fe662f73858158f5e868b772cd68730"
      },
      "performedDateTime": "2020-02-20",
      "reasonReference": [ {
        "reference": "Condition/257c056341e9015dfdd7d15cab0a7414b348796b2b01813101078b451af692c6"
      } ],
      "outcome": {
        "coding": [ {
          "system": "https://www.medizininformatik-initiative.de/fhir/ext/modul-onko/CodeSystem/mii-cs-onko-residualstatus",
          "code": "R1"
        } ]
      }
    },
    "request": {
      "method": "PUT",
      "url": "Procedure/331bcbb7adf285c2a0c75edc7f0d27d8ed4676fcb0f1795e9bd09dfe694331b4"
    }
  }, {
    "fullUrl": "Specimen/025386219f141abc79f578281e6b276da109c5bee70767e2638a2df67e812687",
    "resource": {
      "resourceType": "Specimen",
      "id": "025386219f141abc79f578281e6b276da109c5bee70767e2638a2df67e812687",
      "meta": {
        "profile": [ "https://www.medizininformatik-initiative.de/fhir/ext/modul-onko/StructureDefinition/mii-pr-onko-specimen" ]
      },
      "identifier": [ {
        "system": "https://bzkf.github.io/obds-to-fhir/identifiers/specimen-id",
        "value": "263"
      } ],
      "accessionIdentifier": {
        "value": "H1823/2020"
      },
      "subject": {
        "reference": "Patient/9142ee3ff7990f826ada966f03da267e0fe662f73858158f5e868b772cd68730"
      },
      "collection": {
        "collectedDateTime": "2020-02-20"
      }
    },
    "request": {
      "method": "PUT",
      "url": "Specimen/025386219f141abc79f578281e6b276da109c5bee70767e2638a2df67e812687"
    }
  }, {
    "fullUrl": "Observation/9f5bbde90ae3588f4566c282a64619f4286b485359925d23ba6ca8454dc58ed8",
    "resource": {
      "resourceType": "Observation",
      "id": "9f5bbde90ae3588f4566c282a64619f4286b485359925d23ba6ca8454dc58ed8",
      "meta": {
        "profile": [ "https://www.medizininformatik-initiative.de/fhir/ext/modul-onko/StructureDefinition/mii-pr-onko-histologie-icdo3" ]
      },
      "identifier": [ {
        "system": "https://bzkf.github.io/obds-to-fhir/identifiers/observation-histologie-id",
        "value": "263-ICDO3-8500/3"
      } ],
      "status": "final",
      "code": {
        "coding": [ {
          "system": "http://loinc.org",
          "code": "59847-4"
        } ]
      },
      "subject": {
        "reference": "Patient/9142ee3ff7990f826ada966f03da267e0fe662f73858158f5e868b772cd68730"
      },
      "focus": [ {
        "reference": "Condition/257c056341e9015dfdd7d15cab0a7414b348796b2b01813101078b451af692c6"
      } ],
      "effectiveDateTime": "2020-02-20",
      "valueCodeableConcept": {
        "coding": [ {
          "system": "http://terminology.hl7.org/CodeSystem/icd-o-3",
          "version": "31",
          "code": "8500/3"
        } ],
        "text": "Invasives duktales Karzinom o.n.A."
      },
      "specimen": {
        "reference": "Specimen/025386219f141abc79f578281e6b276da109c5bee70767e2638a2df67e812687"
      }
    },
    "request": {
      "method": "PUT",
      "url": "Observation/9f5bbde90ae3588f4566c282a64619f4286b485359925d23ba6ca8454dc58ed8"
    }
  }, {
    "fullUrl": "Observation/9be471ade1c74a739feae3a4a964ce1b947af5dd9c0c885ddefddb9faf5dc90a",
    "resource": {
      "resourceType": "Observation",
      "id": "9be471ade1c74a739feae3a4a964ce1b947af5dd9c0c885ddefddb9faf5dc90a",
      "meta": {
        "profile": [ "https://www.medizininformatik-initiative.de/fhir/ext/modul-onko/StructureDefinition/mii-pr-onko-grading" ]
      },
      "identifier": [ {
        "system": "https://bzkf.github.io/obds-to-fhir/identifiers/grading-observation-id",
        "value": "263-grading"
      } ],
      "status": "final",
      "category": [ {
        "coding": [ {
          "system": "http://terminology.hl7.org/CodeSystem/observation-category",
          "code": "laboratory"
        } ]
      } ],
      "code": {
        "coding": [ {
          "system": "http://loinc.org",
          "code": "33732-9"
        }, {
          "system": "http://snomed.info/sct",
          "code": "371469007"
        } ]
      },
      "subject": {
        "reference": "Patient/9142ee3ff7990f826ada966f03da267e0fe662f73858158f5e868b772cd68730"
      },
      "focus": [ {
        "reference": "Condition/257c056341e9015dfdd7d15cab0a7414b348796b2b01813101078b451af692c6"
      } ],
      "effectiveDateTime": "2020-02-20",
      "valueCodeableConcept": {
        "coding": [ {
          "system": "https://www.medizininformatik-initiative.de/fhir/ext/modul-onko/CodeSystem/mii-cs-onko-grading",
          "code": "2"
        } ]
      },
      "specimen": {
        "reference": "Specimen/025386219f141abc79f578281e6b276da109c5bee70767e2638a2df67e812687"
      }
    },
    "request": {
      "method": "PUT",
      "url": "Observation/9be471ade1c74a739feae3a4a964ce1b947af5dd9c0c885ddefddb9faf5dc90a"
    }
  }, {
    "fullUrl": "Observation/17358788788562c605162a811ec9380e3366bc08f7bc8df9ff38d9ea923a15de",
    "resource": {
      "resourceType": "Observation",
      "id": "17358788788562c605162a811ec9380e3366bc08f7bc8df9ff38d9ea923a15de",
      "meta": {
        "profile": [ "https://www.medizininformatik-initiative.de/fhir/ext/modul-onko/StructureDefinition/mii-pr-onko-anzahl-befallene-sentinel-lymphknoten" ]
      },
      "identifier": [ {
        "system": "https://bzkf.github.io/obds-to-fhir/identifiers/observation-histologie-id",
        "value": "263_befallen_sentinel"
      } ],
      "status": "final",
      "category": [ {
        "coding": [ {
          "system": "http://terminology.hl7.org/CodeSystem/observation-category",
          "code": "laboratory"
        } ]
      } ],
      "code": {
        "coding": [ {
          "system": "http://loinc.org",
          "code": "92832-5"
        }, {
          "system": "http://snomed.info/sct",
          "code": "1264491009"
        } ]
      },
      "subject": {
        "reference": "Patient/9142ee3ff7990f826ada966f03da267e0fe662f73858158f5e868b772cd68730"
      },
      "focus": [ {
        "reference": "Condition/257c056341e9015dfdd7d15cab0a7414b348796b2b01813101078b451af692c6"
      } ],
      "effectiveDateTime": "2020-02-20",
      "valueQuantity": {
        "value": 2,
        "unit": "#",
        "system": "http://unitsofmeasure.org",
        "code": "1"
      },
      "specimen": {
        "reference": "Specimen/025386219f141abc79f578281e6b276da109c5bee70767e2638a2df67e812687"
      }
    },
    "request": {
      "method": "PUT",
      "url": "Observation/17358788788562c605162a811ec9380e3366bc08f7bc8df9ff38d9ea923a15de"
    }
  }, {
    "fullUrl": "Observation/18274e7560629ff8978478176ca25723b0038be7d9f7d9515ff84cb7284870c7",
    "resource": {
      "resourceType": "Observation",
      "id": "18274e7560629ff8978478176ca25723b0038be7d9f7d9515ff84cb7284870c7",
      "meta": {
        "profile": [ "https://www.medizininformatik-initiative.de/fhir/ext/modul-onko/StructureDefinition/mii-pr-onko-anzahl-untersuchte-sentinel-lymphknoten" ]
      },
      "identifier": [ {
        "system": "https://bzkf.github.io/obds-to-fhir/identifiers/observation-histologie-id",
        "value": "263_untersucht_sentinel"
      } ],
      "status": "final",
      "category": [ {
        "coding": [ {
          "system": "http://terminology.hl7.org/CodeSystem/observation-category",
          "code": "laboratory"
        } ]
      } ],
      "code": {
        "coding": [ {
          "system": "http://loinc.org",
          "code": "85347-3"
        }, {
          "system": "http://snomed.info/sct",
          "code": "444411008"
        } ]
      },
      "subject": {
        "reference": "Patient/9142ee3ff7990f826ada966f03da267e0fe662f73858158f5e868b772cd68730"
      },
      "focus": [ {
        "reference": "Condition/257c056341e9015dfdd7d15cab0a7414b348796b2b01813101078b451af692c6"
      } ],
      "effectiveDateTime": "2020-02-20",
      "valueQuantity": {
        "value": 3,
        "unit": "#",
        "system": "http://unitsofmeasure.org",
        "code": "1"
      },
      "specimen": {
        "reference": "Specimen/025386219f141abc79f578281e6b276da109c5bee70767e2638a2df67e812687"
      }
    },
    "request": {
      "method": "PUT",
      "url": "Observation/18274e7560629ff8978478176ca25723b0038be7d9f7d9515ff84cb7284870c7"
    }
  }, {
    "fullUrl": "Observation/0261ee55628c0655e1b8d3e3692bc02611e3f523c7edb1fae1bc87a8c9a49464",
    "resource": {
      "resourceType": "Observation",
      "id": "0261ee55628c0655e1b8d3e3692bc02611e3f523c7edb1fae1bc87a8c9a49464",
      "meta": {
        "profile": [ "https://www.medizininformatik-initiative.de/fhir/ext/modul-onko/StructureDefinition/mii-pr-onko-tnm-t-kategorie" ]
      },
      "identifier": [ {
        "system": "https://bzkf.github.io/obds-to-fhir/identifiers/tnm-t-kategorie-observation-id",
        "value": "250_T"
      } ],
      "status": "final",
      "code": {
        "extension": [ {
          "url": "https://www.medizininformatik-initiative.de/fhir/ext/modul-onko/StructureDefinition/mii-ex-onko-tnm-cp-praefix",
          "valueCodeableConcept": {
            "coding": [ {
              "system": "https://www.uicc.org/resources/tnm",
              "code": "p"
            } ]
          }
        } ],
        "coding": [ {
          "system": "http://snomed.info/sct",
          "code": "384625004",
          "display": "pT category (observable entity)"
        } ]
      },
      "subject": {
        "reference": "Patient/9142ee3ff7990f826ada966f03da267e0fe662f73858158f5e868b772cd68730"
      },
      "focus": [ {
        "reference": "Condition/257c056341e9015dfdd7d15cab0a7414b348796b2b01813101078b451af692c6"
      } ],
      "effectiveDateTime": "2020-02-20",
      "valueCodeableConcept": {
        "coding": [ {
          "system": "https://www.uicc.org/resources/tnm",
          "code": "T2"
        } ]
      },
      "method": {
        "coding": [ {
          "system": "https://www.medizininformatik-initiative.de/fhir/ext/modul-onko/CodeSystem/mii-cs-onko-tnm-version",
          "code": "8"
        } ]
      }
    },
    "request": {
      "method": "PUT",
      "url": "Observation/0261ee55628c0655e1b8d3e3692bc02611e3f523c7edb1fae1bc87a8c9a49464"
    }
  }, {
    "fullUrl": "Observation/48d200bbd217d21d43cd06301469bc603fc04ae71c6536732084db87b6152fc0",
    "resource": {
      "resourceType": "Observation",
      "id": "48d200bbd217d21d43cd06301469bc603fc04ae71c6536732084db87b6152fc0",
      "meta": {
        "profile": [ "https://www.medizininformatik-initiative.de/fhir/ext/modul-onko/StructureDefinition/mii-pr-onko-tnm-n-kategorie" ]
      },
      "identifier": [ {
        "system": "https://bzkf.github.io/obds-to-fhir/identifiers/tnm-n-kategorie-observation-id",
        "value": "250_N"
      } ],
      "status": "final",
      "code": {
        "extension": [ {
          "url": "https://www.medizininformatik-initiative.de/fhir/ext/modul-onko/StructureDefinition/mii-ex-onko-tnm-cp-praefix",
          "valueCodeableConcept": {
            "coding": [ {
              "system": "https://www.uicc.org/resources/tnm",
              "code": "p"
            } ]
          }
        } ],
        "coding": [ {
          "system": "http://snomed.info/sct",
          "code": "371494008",
          "display": "pN category (observable entity)"
        } ]
      },
      "subject": {
        "reference": "Patient/9142ee3ff7990f826ada966f03da267e0fe662f73858158f5e868b772cd68730"
      },
      "focus": [ {
        "reference": "Condition/257c056341e9015dfdd7d15cab0a7414b348796b2b01813101078b451af692c6"
      } ],
      "effectiveDateTime": "2020-02-20",
      "valueCodeableConcept": {
        "extension": [ {
          "url": "https://www.medizininformatik-initiative.de/fhir/ext/modul-onko/StructureDefinition/mii-ex-onko-tnm-sn-suffix",
          "valueCodeableConcept": {
            "coding": [ {
              "system": "https://www.uicc.org/resources/tnm",
              "code": "sn"
            } ]
          }
        } ],
        "coding": [ {
          "system": "https://www.uicc.org/resources/tnm",
          "code": "N1"
        } ]
      },
      "method": {
        "coding": [ {
          "system": "https://www.medizininformatik-initiative.de/fhir/ext/modul-onko/CodeSystem/mii-cs-onko-tnm-version",
          "code": "8"
        } ]
      }
    },
    "request": {
      "method": "PUT",
      "url": "Observation/48d200bbd217d21d43cd06301469bc603fc04ae71c6536732084db87b6152fc0"
    }
  }, {
    "fullUrl": "Observation/9f4e8cfb9f25cc7e5d21f456c2dd67154355abf654ee150e619002b4326b491a",
    "resource": {
      "resourceType": "Observation",
      "id": "9f4e8cfb9f25cc7e5d21f456c2dd67154355abf654ee150e619002b4326b491a",
      "meta": {
        "profile": [ "https://www.medizininformatik-initiative.de/fhir/ext/modul-onko/StructureDefinition/mii-pr-onko-tnm-m-kategorie" ]
      },
      "identifier": [ {
        "system": "https://bzkf.github.io/obds-to-fhir/identifiers/tnm-m-kategorie-observation-id",
        "value": "250_M"
      } ],
      "status": "final",
      "code": {
        "extension": [ {
          "url": "https://www.medizininformatik-initiative.de/fhir/ext/modul-onko/StructureDefinition/mii-ex-onko-tnm-cp-praefix",
          "valueCodeableConcept": {
            "coding": [ {
              "system": "https://www.uicc.org/resources/tnm",
              "code": "c"
            } ]
          }
        } ],
        "coding": [ {
          "system": "http://snomed.info/sct",
          "code": "399387003",
          "display": "cM category (observable entity)"
        } ]
      },
      "subject": {
        "reference": "Patient/9142ee3ff7990f826ada966f03da267e0fe662f73858158f5e868b772cd68730"
      },
      "focus": [ {
        "reference": "Condition/257c056341e9015dfdd7d15cab0a7414b348796b2b01813101078b451af692c6"
      } ],
      "effectiveDateTime": "2020-02-20",
      "valueCodeableConcept": {
        "coding": [ {
          "system": "https://www.uicc.org/resources/tnm",
          "code": "M0"
        } ]
      },
      "method": {
        "coding": [ {
          "system": "https://www.medizininformatik-initiative.de/fhir/ext/modul-onko/CodeSystem/mii-cs-onko-tnm-version",
          "code": "8"
        } ]
      }
    },
    "request": {
      "method": "PUT",
      "url": "Observation/9f4e8cfb9f25cc7e5d21f456c2dd67154355abf654ee150e619002b4326b491a"
    }
  }, {
    "fullUrl": "Observation/a4370fc2e6218190ef1cc50a8c90735a6988e9859407b45144a5faf22a7b7a10",
    "resource": {
      "resourceType": "Observation",
      "id": "a4370fc2e6218190ef1cc50a8c90735a6988e9859407b45144a5faf22a7b7a10",
      "meta": {
        "profile": [ "https://www.medizininformatik-initiative.de/fhir/ext/modul-onko/StructureDefinition/mii-pr-onko-tnm-l-kategorie" ]
      },
      "identifier": [ {
        "system": "https://bzkf.github.io/obds-to-fhir/identifiers/tnm-l-kategorie-observation-id",
        "value": "250_L"
      } ],
      "status": "final",
      "code": {
        "coding": [ {
          "system": "http://snomed.info/sct",
          "code": "395715009"
        } ]
      },
      "subject": {
        "reference": "Patient/9142ee3ff7990f826ada966f03da267e0fe662f73858158f5e868b772cd68730"
      },
      "focus": [ {
        "reference": "Condition/257c056341e9015dfdd7d15cab0a7414b348796b2b01813101078b451af692c6"
      } ],
      "effectiveDateTime": "2020-02-20",
      "valueCodeableConcept": {
        "coding": [ {
          "system": "https://www.uicc.org/resources/tnm",
          "code": "L0"
        } ]
      },
      "method": {
        "coding": [ {
          "system": "https://www.medizininformatik-initiative.de/fhir/ext/modul-onko/CodeSystem/mii-cs-onko-tnm-version",
          "code": "8"
        } ]
      }
    },
    "request": {
      "method": "PUT",
      "url": "Observation/a4370fc2e6218190ef1cc50a8c90735a6988e9859407b45144a5faf22a7b7a10"
    }
  }, {
    "fullUrl": "Observation/f7da19c5c4ccad465a70255df9df5d15e90f961fd1a838986f5e6cd672f6e83f",
    "resource": {
      "resourceType": "Observation",
      "id": "f7da19c5c4ccad465a70255df9df5d15e90f961fd1a838986f5e6cd672f6e83f",
      "meta": {
        "profile": [ "https://www.medizininformatik-initiative.de/fhir/ext/modul-onko/StructureDefinition/mii-pr-onko-tnm-pn-kategorie" ]
      },
      "identifier": [ {
        "system": "https://bzkf.github.io/obds-to-fhir/identifiers/tnm-pn-kategorie-observation-id",
        "value": "250_Pn"
      } ],
      "status": "final",
      "code": {
        "coding": [ {
          "system": "http://snomed.info/sct",
          "code": "371513001"
        } ]
      },
      "subject": {
        "reference": "Patient/9142ee3ff7990f826ada966f03da267e0fe662f73858158f5e868b772cd68730"
      },
      "focus": [ {
        "reference": "Condition/257c056341e9015dfdd7d15cab0a7414b348796b2b01813101078b451af692c6"
      } ],
      "effectiveDateTime": "2020-02-20",
      "valueCodeableConcept": {
        "coding": [ {
          "system": "https://www.uicc.org/resources/tnm",
          "code": "Pn0"
        } ]
      },
      "method": {
        "coding": [ {
          "system": "https://www.medizininformatik-initiative.de/fhir/ext/modul-onko/CodeSystem/mii-cs-onko-tnm-version",
          "code": "8"
        } ]
      }
    },
    "request": {
      "method": "PUT",
      "url": "Observation/f7da19c5c4ccad465a70255df9df5d15e90f961fd1a838986f5e6cd672f6e83f"
    }
  }, {
    "fullUrl": "Observation/0b20dc056d0511cae0ba1064b12afbc2842ff668207ab4d68814b08546364816",
    "resource": {
      "resourceType": "Observation",
      "id": "0b20dc056d0511cae0ba1064b12afbc2842ff668207ab4d68814b08546364816",
      "meta": {
        "profile": [ "https://www.medizininformatik-initiative.de/fhir/ext/modul-onko/StructureDefinition/mii-pr-onko-tnm-v-kategorie" ]
      },
      "identifier": [ {
        "system": "https://bzkf.github.io/obds-to-fhir/identifiers/tnm-v-kategorie-observation-id",
        "value": "250_V"
      } ],
      "status": "final",
      "code": {
        "coding": [ {
          "system": "http://snomed.info/sct",
          "code": "371493002"
        } ]
      },
      "subject": {
        "reference": "Patient/9142ee3ff7990f826ada966f03da267e0fe662f73858158f5e868b772cd68730"
      },
      "focus": [ {
        "reference": "Condition/257c056341e9015dfdd7d15cab0a7414b348796b2b01813101078b451af692c6"
      } ],
      "effectiveDateTime": "2020-02-20",
      "valueCodeableConcept": {
        "coding": [ {
          "system": "https://www.uicc.org/resources/tnm",
          "code": "V0"
        } ]
      },
      "method": {
        "coding": [ {
          "system": "https://www.medizininformatik-initiative.de/fhir/ext/modul-onko/CodeSystem/mii-cs-onko-tnm-version",
          "code": "8"
        } ]
      }
    },
    "request": {
      "method": "PUT",
      "url": "Observation/0b20dc056d0511cae0ba1064b12afbc2842ff668207ab4d68814b08546364816"
    }
  }, {
    "fullUrl": "Observation/46b7dfb6d6c176cf6972d9c7d3464e7712415f72a06ae8adb5f771dc25ff76fc",
    "resource": {
      "resourceType": "Observation",
      "id": "46b7dfb6d6c176cf6972d9c7d3464e7712415f72a06ae8adb5f771dc25ff76fc",
      "meta": {
        "profile": [ "https://www.medizininformatik-initiative.de/fhir/ext/modul-onko/StructureDefinition/mii-pr-onko-tnm-klassifikation" ]
      },
      "identifier": [ {
        "system": "https://bzkf.github.io/obds-to-fhir/identifiers/tnm-grouping-observation-id",
        "value": "250"
      } ],
      "status": "final",
      "code": {
        "coding": [ {
          "system": "http://snomed.info/sct",
          "code": "399390009",
          "display": "TNM stage grouping"
        } ]
      },
      "subject": {
        "reference": "Patient/9142ee3ff7990f826ada966f03da267e0fe662f73858158f5e868b772cd68730"
      },
      "focus": [ {
        "reference": "Condition/257c056341e9015dfdd7d15cab0a7414b348796b2b01813101078b451af692c6"
      } ],
      "effectiveDateTime": "2020-02-20",
      "valueCodeableConcept": {
        "coding": [ {
          "system": "https://www.uicc.org/resources/tnm",
          "code": "IIB",
          "display": "Stadium IIB"
        } ]
      },
      "method": {
        "coding": [ {
          "system": "https://www.medizininformatik-initiative.de/fhir/ext/modul-onko/CodeSystem/mii-cs-onko-tnm-version",
          "code": "8"
        } ]
      },
      "hasMember": [ {
        "reference": "Observation/0261ee55628c0655e1b8d3e3692bc02611e3f523c7edb1fae1bc87a8c9a49464"
      }, {
        "reference": "Observation/48d200bbd217d21d43cd06301469bc603fc04ae71c6536732084db87b6152fc0"
      }, {
        "reference": "Observation/9f4e8cfb9f25cc7e5d21f456c2dd67154355abf654ee150e619002b4326b491a"
      }, {
        "reference": "Observation/a4370fc2e6218190ef1cc50a8c90735a6988e9859407b45144a5faf22a7b7a10"
      }, {
        "reference": "Observation/f7da19c5c4ccad465a70255df9df5d15e90f961fd1a838986f5e6cd672f6e83f"
      }, {
        "reference": "Observation/0b20dc056d0511cae0ba1064b12afbc2842ff668207ab4d68814b08546364816"
      } ]
    },
    "request": {
      "method": "PUT",
      "url": "Observation/46b7dfb6d6c176cf6972d9c7d3464e7712415f72a06ae8adb5f771dc25ff76fc"
    }
  }, {
    "fullUrl": "CarePlan/5b2895fc6d3bedd34b9a0a0c9eb1f38c1e67b20ef505c412b8181d4c2ea02ee2",
    "resource": {
      "resourceType": "CarePlan",
      "id": "5b2895fc6d3bedd34b9a0a0c9eb1f38c1e67b20ef505c412b8181d4c2ea02ee2",
      "meta": {
        "profile": [ "https://www.medizininformatik-initiative.de/fhir/ext/modul-onko/StructureDefinition/mii-pr-onko-tumorkonferenz" ]
      },
      "identifier": [ {
        "system": "https://bzkf.github.io/obds-to-fhir/identifiers/tumorkonferenz-id",
        "value": "Tumorkonferenz_108"
      } ],
      "status": "active",
      "intent": "plan",
      "category": [ {
        "coding": [ {
          "system": "https://www.medizininformatik-initiative.de/fhir/ext/modul-onko/CodeSystem/mii-cs-onko-therapieplanung-typ",
          "code": "praeth"
        } ]
      } ],
      "subject": {
        "reference": "Patient/9142ee3ff7990f826ada966f03da267e0fe662f73858158f5e868b772cd68730"
      },
      "created": "2021-09-21",
      "addresses": [ {
        "reference": "Condition/257c056341e9015dfdd7d15cab0a7414b348796b2b01813101078b451af692c6"
      } ],
      "activity": [ {
        "detail": {
          "code": {
            "coding": [ {
              "system": "https://www.medizininformatik-initiative.de/fhir/ext/modul-onko/CodeSystem/mii-cs-onko-therapie-typ",
              "code": "CH"
            } ]
          },
          "status": "cancelled",
          "statusReason": {
            "coding": [ {
              "system": "https://www.medizininformatik-initiative.de/fhir/ext/modul-onko/CodeSystem/mii-cs-onko-therapieabweichung",
              "code": "J"
            } ]
          }
        }
      } ]
    },
    "request": {
      "method": "PUT",
      "url": "CarePlan/5b2895fc6d3bedd34b9a0a0c9eb1f38c1e67b20ef505c412b8181d4c2ea02ee2"
    }
  }, {
    "fullUrl": "Procedure/7235df9cd9b20c4e863029e1bfbda394ef3941e2086340b9f19e0ff64ef618ec",
    "resource": {
      "resourceType": "Procedure",
      "id": "7235df9cd9b20c4e863029e1bfbda394ef3941e2086340b9f19e0ff64ef618ec",
      "meta": {
        "profile": [ "https://www.medizininformatik-initiative.de/fhir/ext/modul-onko/StructureDefinition/mii-pr-onko-strahlentherapie" ]
      },
      "extension": [ {
        "url": "https://www.medizininformatik-initiative.de/fhir/ext/modul-onko/StructureDefinition/mii-ex-onko-strahlentherapie-intention",
        "valueCodeableConcept": {
          "coding": [ {
            "system": "https://www.medizininformatik-initiative.de/fhir/ext/modul-onko/CodeSystem/mii-cs-onko-intention",
            "code": "K"
          } ]
        }
      }, {
        "url": "https://www.medizininformatik-initiative.de/fhir/ext/modul-onko/StructureDefinition/mii-ex-onko-strahlentherapie-stellungzurop",
        "valueCodeableConcept": {
          "coding": [ {
            "system": "https://www.medizininformatik-initiative.de/fhir/ext/modul-onko/CodeSystem/mii-cs-therapie-stellungzurop",
            "code": "A"
          } ]
        }
      }, {
        "url": "https://www.medizininformatik-initiative.de/fhir/ext/modul-onko/StructureDefinition/mii-ex-onko-strahlentherapie-bestrahlung",
        "extension": [ {
          "url": "Applikationsart",
          "valueCodeableConcept": {
            "coding": [ {
              "system": "https://www.medizininformatik-initiative.de/fhir/ext/modul-onko/CodeSystem/mii-cs-onko-strahlentherapie-applikationsart",
              "code": "PRCN"
            } ]
          }
        }, {
          "url": "Zielgebiet",
          "valueCodeableConcept": {
            "coding": [ {
              "system": "https://www.medizininformatik-initiative.de/fhir/ext/modul-onko/CodeSystem/mii-cs-onko-strahlentherapie-zielgebiet",
              "code": "3.1.+"
            } ]
          }
        }, {
          "url": "Zielgebiet_Lateralitaet",
          "valueCodeableConcept": {
            "coding": [ {
              "system": "https://www.medizininformatik-initiative.de/fhir/ext/modul-onko/CodeSystem/mii-cs-onko-seitenlokalisation",
              "code": "R"
            } ]
          }
        }, {
          "url": "Gesamtdosis",
          "valueQuantity": {
            "value": 58.8,
            "unit": "Gy",
            "system": "http://unitsofmeasure.org",
            "code": "Gy"
          }
        }, {
          "url": "Einzeldosis",
          "valueQuantity": {
            "value": 1.8,
            "unit": "Gy",
            "system": "http://unitsofmeasure.org",
            "code": "Gy"
          }
        }, {
          "url": "Boost",
          "valueCodeableConcept": {
            "coding": [ {
              "system": "https://www.medizininformatik-initiative.de/fhir/ext/modul-onko/CodeSystem/mii-cs-onko-strahlentherapie-boost",
              "code": "SIB"
            } ]
          }
        } ]
      } ],
      "identifier": [ {
        "system": "https://bzkf.github.io/obds-to-fhir/identifiers/strahlentherapie-procedure-id",
        "value": "60_1_ST_1"
      } ],
      "status": "completed",
      "category": {
        "coding": [ {
          "system": "http://snomed.info/sct",
          "code": "1287742003",
          "display": "Radiotherapy (procedure)"
        } ]
      },
      "code": {
        "coding": [ {
          "system": "http://fhir.de/CodeSystem/bfarm/ops",
          "version": "2025",
          "code": "8-52",
          "display": "Strahlentherapie"
        } ]
      },
      "subject": {
        "reference": "Patient/9142ee3ff7990f826ada966f03da267e0fe662f73858158f5e868b772cd68730"
      },
      "performedPeriod": {
        "start": "2020-06-12",
        "end": "2020-07-15"
      },
      "reasonReference": [ {
        "reference": "Condition/257c056341e9015dfdd7d15cab0a7414b348796b2b01813101078b451af692c6"
      } ],
      "outcome": {
        "coding": [ {
          "system": "https://www.medizininformatik-initiative.de/fhir/ext/modul-onko/CodeSystem/mii-cs-onko-therapie-ende-grund",
          "code": "E"
        } ]
      }
    },
    "request": {
      "method": "PUT",
      "url": "Procedure/7235df9cd9b20c4e863029e1bfbda394ef3941e2086340b9f19e0ff64ef618ec"
    }
  }, {
    "fullUrl": "Procedure/de875a1e1285ad0484739a80e4d58a12a2c1483dcc097458852a16ce1b264736",
    "resource": {
      "resourceType": "Procedure",
      "id": "de875a1e1285ad0484739a80e4d58a12a2c1483dcc097458852a16ce1b264736",
      "meta": {
        "profile": [ "https://www.medizininformatik-initiative.de/fhir/ext/modul-onko/StructureDefinition/mii-pr-onko-systemische-therapie" ]
      },
      "extension": [ {
        "url": "https://www.medizininformatik-initiative.de/fhir/ext/modul-onko/StructureDefinition/mii-ex-onko-systemische-therapie-intention",
        "valueCodeableConcept": {
          "coding": [ {
            "system": "https://www.medizininformatik-initiative.de/fhir/ext/modul-onko/CodeSystem/mii-cs-onko-intention",
            "code": "K"
          } ]
        }
      }, {
        "url": "https://www.medizininformatik-initiative.de/fhir/ext/modul-onko/StructureDefinition/mii-ex-onko-strahlentherapie-stellungzurop",
        "valueCodeableConcept": {
          "coding": [ {
            "system": "https://www.medizininformatik-initiative.de/fhir/ext/modul-onko/CodeSystem/mii-cs-therapie-stellungzurop",
            "code": "A"
          } ]
        }
      } ],
      "identifier": [ {
        "system": "https://bzkf.github.io/obds-to-fhir/identifiers/systemische-therapie-procedure-id",
        "value": "60_1_IN_1"
      } ],
      "status": "in-progress",
      "category": {
        "coding": [ {
          "system": "http://snomed.info/sct",
          "code": "18629005"
        } ]
      },
      "code": {
        "coding": [ {
          "system": "http://fhir.de/CodeSystem/bfarm/ops",
          "code": "8-54"
        }, {
          "system": "https://www.medizininformatik-initiative.de/fhir/ext/modul-onko/CodeSystem/mii-cs-onko-therapie-typ",
          "code": "CH"
        } ]
      },
      "subject": {
        "reference": "Patient/9142ee3ff7990f826ada966f03da267e0fe662f73858158f5e868b772cd68730"
      },
      "performedPeriod": {
        "start": "2020-04-03"
      }
    },
    "request": {
      "method": "PUT",
      "url": "Procedure/de875a1e1285ad0484739a80e4d58a12a2c1483dcc097458852a16ce1b264736"
    }
  }, {
    "fullUrl": "MedicationStatement/7f30e8f22be34d7b884b477ba95c11b57f5af9076159acb68555f5bed4a9b755",
    "resource": {
      "resourceType": "MedicationStatement",
      "id": "7f30e8f22be34d7b884b477ba95c11b57f5af9076159acb68555f5bed4a9b755",
      "meta": {
        "profile": [ "https://www.medizininformatik-initiative.de/fhir/core/modul-medikation/StructureDefinition/MedicationStatement" ]
      },
      "identifier": [ {
        "system": "https://bzkf.github.io/obds-to-fhir/identifiers/systemische-therapie-medication-statement-id",
        "value": "60_1_IN_1_Cisplatin_bb7f"
      } ],
      "partOf": [ {
        "reference": "Procedure/de875a1e1285ad0484739a80e4d58a12a2c1483dcc097458852a16ce1b264736"
      } ],
      "status": "active",
      "medicationCodeableConcept": {
        "text": "Cisplatin"
      },
      "subject": {
        "reference": "Patient/9142ee3ff7990f826ada966f03da267e0fe662f73858158f5e868b772cd68730"
      },
      "effectivePeriod": {
        "start": "2020-04-03"
      }
    },
    "request": {
      "method": "PUT",
      "url": "MedicationStatement/7f30e8f22be34d7b884b477ba95c11b57f5af9076159acb68555f5bed4a9b755"
    }
  }, {
    "fullUrl": "Procedure/f52e718bb2946bce3b4886e0dc8139d24bcaafad2b502a8e3c2a76022f117d8d",
    "resource": {
      "resourceType": "Procedure",
      "id": "f52e718bb2946bce3b4886e0dc8139d24bcaafad2b502a8e3c2a76022f117d8d",
      "meta": {
        "profile": [ "https://www.medizininformatik-initiative.de/fhir/ext/modul-onko/StructureDefinition/mii-pr-onko-systemische-therapie" ]
      },
      "extension": [ {
        "url": "https://www.medizininformatik-initiative.de/fhir/ext/modul-onko/StructureDefinition/mii-ex-onko-systemische-therapie-intention",
        "valueCodeableConcept": {
          "coding": [ {
            "system": "https://www.medizininformatik-initiative.de/fhir/ext/modul-onko/CodeSystem/mii-cs-onko-intention",
            "code": "K"
          } ]
        }
      }, {
        "url": "https://www.medizininformatik-initiative.de/fhir/ext/modul-onko/StructureDefinition/mii-ex-onko-strahlentherapie-stellungzurop",
        "valueCodeableConcept": {
          "coding": [ {
            "system": "https://www.medizininformatik-initiative.de/fhir/ext/modul-onko/CodeSystem/mii-cs-therapie-stellungzurop",
            "code": "A"
          } ]
        }
      } ],
      "identifier": [ {
        "system": "https://bzkf.github.io/obds-to-fhir/identifiers/systemische-therapie-procedure-id",
        "value": "60_1_IN_2"
      } ],
      "status": "in-progress",
      "category": {
        "coding": [ {
          "system": "http://snomed.info/sct",
          "code": "18629005"
        } ]
      },
      "code": {
        "coding": [ {
          "system": "http://fhir.de/CodeSystem/bfarm/ops",
          "code": "6-00"
        }, {
          "system": "https://www.medizininformatik-initiative.de/fhir/ext/modul-onko/CodeSystem/mii-cs-onko-therapie-typ",
          "code": "HO"
        } ]
      },
      "subject": {
        "reference": "Patient/9142ee3ff7990f826ada966f03da267e0fe662f73858158f5e868b772cd68730"
      },
      "performedPeriod": {
        "start": "2020-08-02"
      }
    },
    "request": {
      "method": "PUT",
      "url": "Procedure/f52e718bb2946bce3b4886e0dc8139d24bcaafad2b502a8e3c2a76022f117d8d"
    }
  }, {
    "fullUrl": "CarePlan/5635ea2fa471aec16706e24b9d25d28a012359fec2f4235d3534cf8580e9fb28",
    "resource": {
      "resourceType": "CarePlan",
      "id": "5635ea2fa471aec16706e24b9d25d28a012359fec2f4235d3534cf8580e9fb28",
      "meta": {
        "profile": [ "https://www.medizininformatik-initiative.de/fhir/ext/modul-onko/StructureDefinition/mii-pr-onko-tumorkonferenz" ]
      },
      "identifier": [ {
        "system": "https://bzkf.github.io/obds-to-fhir/identifiers/tumorkonferenz-id",
        "value": "Tumorkonferenz_109"
      } ],
      "status": "completed",
      "intent": "plan",
      "category": [ {
        "coding": [ {
          "system": "https://www.medizininformatik-initiative.de/fhir/ext/modul-onko/CodeSystem/mii-cs-onko-therapieplanung-typ",
          "code": "postop"
        } ]
      } ],
      "subject": {
        "reference": "Patient/9142ee3ff7990f826ada966f03da267e0fe662f73858158f5e868b772cd68730"
      },
      "created": "2020-03-10",
      "addresses": [ {
        "reference": "Condition/257c056341e9015dfdd7d15cab0a7414b348796b2b01813101078b451af692c6"
      } ],
      "activity": [ {
        "detail": {
          "code": {
            "coding": [ {
              "system": "https://www.medizininformatik-initiative.de/fhir/ext/modul-onko/CodeSystem/mii-cs-onko-therapie-typ",
              "code": "CH"
            } ]
          },
          "status": "completed",
          "statusReason": {
            "coding": [ {
              "system": "https://www.medizininformatik-initiative.de/fhir/ext/modul-onko/CodeSystem/mii-cs-onko-therapieabweichung",
              "code": "N"
            } ]
          }
        }
      }, {
        "detail": {
          "code": {
            "coding": [ {
              "system": "https://www.medizininformatik-initiative.de/fhir/ext/modul-onko/CodeSystem/mii-cs-onko-therapie-typ",
              "code": "ST"
            } ]
          },
          "status": "completed",
          "statusReason": {
            "coding": [ {
              "system": "https://www.medizininformatik-initiative.de/fhir/ext/modul-onko/CodeSystem/mii-cs-onko-therapieabweichung",
              "code": "N"
            } ]
          }
        }
      }, {
        "detail": {
          "code": {
            "coding": [ {
              "system": "https://www.medizininformatik-initiative.de/fhir/ext/modul-onko/CodeSystem/mii-cs-onko-therapie-typ",
              "code": "HO"
            } ]
          },
          "status": "completed",
          "statusReason": {
            "coding": [ {
              "system": "https://www.medizininformatik-initiative.de/fhir/ext/modul-onko/CodeSystem/mii-cs-onko-therapieabweichung",
              "code": "N"
            } ]
          }
        }
      } ]
    },
    "request": {
      "method": "PUT",
      "url": "CarePlan/5635ea2fa471aec16706e24b9d25d28a012359fec2f4235d3534cf8580e9fb28"
    }
  } ]
}