{
  "resourceType": "Bundle",
  "id": "6f5a4631aa1afa9fb3b290f6bb86163ea01f9b24bd1170e5d79a0c36995c2c57",
  "type": "transaction",
  "entry": [ {
    "fullUrl": "Patient/6f5a4631aa1afa9fb3b290f6bb86163ea01f9b24bd1170e5d79a0c36995c2c57",
    "resource": {
      "resourceType": "Patient",
      "id": "6f5a4631aa1afa9fb3b290f6bb86163ea01f9b24bd1170e5d79a0c36995c2c57",
      "meta": {
        "profile": [ "https://www.medizininformatik-initiative.de/fhir/core/modul-person/StructureDefinition/PatientPseudonymisiert" ]
      },
      "identifier": [ {
        "type": {
          "coding": [ {
            "system": "http://terminology.hl7.org/CodeSystem/v2-0203",
            "code": "MR",
            "display": "Medical record number"
          }, {
            "system": "http://terminology.hl7.org/CodeSystem/v3-ObservationValue",
            "code": "PSEUDED",
            "display": "pseudonymized"
          } ]
        },
        "system": "https://bzkf.github.io/obds-to-fhir/identifiers/patient-id",
        "value": "12"
      } ],
      "gender": "female",
      "birthDate": "1953-07-21",
      "address": [ {
        "type": "both",
        "postalCode": "00000",
        "country": "DE"
      } ]
    },
    "request": {
      "method": "PUT",
      "url": "Patient/6f5a4631aa1afa9fb3b290f6bb86163ea01f9b24bd1170e5d79a0c36995c2c57"
    }
  }, {
    "fullUrl": "Condition/ada766c1f2eea7625dc4d9bac33d99d0f2a3606376cfa0798fa7c839be6f1e16",
    "resource": {
      "resourceType": "Condition",
      "id": "ada766c1f2eea7625dc4d9bac33d99d0f2a3606376cfa0798fa7c839be6f1e16",
      "meta": {
        "profile": [ "https://www.medizininformatik-initiative.de/fhir/ext/modul-onko/StructureDefinition/mii-pr-onko-diagnose-primaertumor" ]
      },
      "extension": [ {
        "url": "https://www.medizininformatik-initiative.de/fhir/ext/modul-onko/StructureDefinition/mii-ex-onko-histology-morphology-behavior-icdo3",
        "valueCodeableConcept": {
          "coding": [ {
            "system": "http://terminology.hl7.org/CodeSystem/icd-o-3",
            "version": "32",
            "code": "8461/3"
          } ]
        }
      }, {
        "url": "http://hl7.org/fhir/StructureDefinition/condition-assertedDate",
        "valueDateTime": "2017-07-02"
      } ],
      "identifier": [ {
        "system": "https://bzkf.github.io/obds-to-fhir/identifiers/primaerdiagnose-id",
        "value": "121"
      } ],
      "verificationStatus": {
        "coding": [ {
          "system": "http://terminology.hl7.org/CodeSystem/condition-ver-status",
          "code": "confirmed"
        }, {
          "system": "https://www.medizininformatik-initiative.de/fhir/ext/modul-onko/CodeSystem/mii-cs-onko-primaertumor-diagnosesicherung",
          "code": "7"
        } ]
      },
      "code": {
        "coding": [ {
          "system": "http://fhir.de/CodeSystem/bfarm/icd-10-gm",
          "version": "2017",
          "code": "C56"
        } ]
      },
      "bodySite": [ {
        "coding": [ {
          "system": "http://terminology.hl7.org/CodeSystem/icd-o-3",
          "version": "32",
          "code": "C56.9"
        } ]
      }, {
        "coding": [ {
          "system": "https://www.medizininformatik-initiative.de/fhir/ext/modul-onko/CodeSystem/mii-cs-onko-seitenlokalisation",
          "code": "T"
        } ]
      } ],
      "subject": {
        "reference": "Patient/6f5a4631aa1afa9fb3b290f6bb86163ea01f9b24bd1170e5d79a0c36995c2c57"
      },
      "recordedDate": "2024-02-16"
    },
    "request": {
      "method": "PUT",
      "url": "Condition/ada766c1f2eea7625dc4d9bac33d99d0f2a3606376cfa0798fa7c839be6f1e16"
    }
  }, {
    "fullUrl": "Observation/66d516595ce02c44d0a0a4468e65f29af40fea407465cacaea88f617e37d2ac4",
    "resource": {
      "resourceType": "Observation",
      "id": "66d516595ce02c44d0a0a4468e65f29af40fea407465cacaea88f617e37d2ac4",
      "meta": {
        "profile": [ "https://www.medizininformatik-initiative.de/fhir/ext/modul-onko/StructureDefinition/mii-pr-onko-allgemeiner-leistungszustand-ecog" ]
      },
      "identifier": [ {
        "system": "https://bzkf.github.io/obds-to-fhir/identifiers/allgemeiner-leistungszustand-ecog-id",
        "value": "ECOG-12_1_DI-1"
      } ],
      "status": "final",
      "code": {
        "coding": [ {
          "system": "http://snomed.info/sct",
          "code": "423740007"
        } ]
      },
      "subject": {
        "reference": "Patient/6f5a4631aa1afa9fb3b290f6bb86163ea01f9b24bd1170e5d79a0c36995c2c57"
      },
      "focus": [ {
        "reference": "Condition/ada766c1f2eea7625dc4d9bac33d99d0f2a3606376cfa0798fa7c839be6f1e16"
      } ],
      "effectiveDateTime": "2017-07-02",
      "valueCodeableConcept": {
        "coding": [ {
          "system": "https://www.medizininformatik-initiative.de/fhir/ext/modul-onko/CodeSystem/mii-cs-onko-allgemeiner-leistungszustand-ecog",
          "code": "1",
          "display": "Einschränkung bei körperlicher Anstrengung, aber gehfähig; leichte körperliche Arbeit bzw. Arbeit im Sitzen (z. B. leichte Hausarbeit oder Büroarbeit) möglich (70 - 80 % nach Karnofsky)"
        } ]
      }
    },
    "request": {
      "method": "PUT",
      "url": "Observation/66d516595ce02c44d0a0a4468e65f29af40fea407465cacaea88f617e37d2ac4"
    }
  }, {
    "fullUrl": "Specimen/5cdea52c0023bfe2eeab5ddcf50d778fd03d49641275c5465d3d1070f17c4a2c",
    "resource": {
      "resourceType": "Specimen",
      "id": "5cdea52c0023bfe2eeab5ddcf50d778fd03d49641275c5465d3d1070f17c4a2c",
      "meta": {
        "profile": [ "https://www.medizininformatik-initiative.de/fhir/ext/modul-onko/StructureDefinition/mii-pr-onko-specimen" ]
      },
      "identifier": [ {
        "system": "https://bzkf.github.io/obds-to-fhir/identifiers/specimen-id",
        "value": "280"
      } ],
      "accessionIdentifier": {
        "value": "H111/2017"
      },
      "subject": {
        "reference": "Patient/6f5a4631aa1afa9fb3b290f6bb86163ea01f9b24bd1170e5d79a0c36995c2c57"
      },
      "collection": {
        "collectedDateTime": "2017-07-02"
      }
    },
    "request": {
      "method": "PUT",
      "url": "Specimen/5cdea52c0023bfe2eeab5ddcf50d778fd03d49641275c5465d3d1070f17c4a2c"
    }
  }, {
    "fullUrl": "Observation/240f120caf69415a45a8f726313446dbb68f5789cf8c98f9a2a22b0c8e5479b3",
    "resource": {
      "resourceType": "Observation",
      "id": "240f120caf69415a45a8f726313446dbb68f5789cf8c98f9a2a22b0c8e5479b3",
      "meta": {
        "profile": [ "https://www.medizininformatik-initiative.de/fhir/ext/modul-onko/StructureDefinition/mii-pr-onko-histologie-icdo3" ]
      },
      "identifier": [ {
        "system": "https://bzkf.github.io/obds-to-fhir/identifiers/observation-histologie-id",
        "value": "280-ICDO3-8461/3"
      } ],
      "status": "final",
      "code": {
        "coding": [ {
          "system": "http://loinc.org",
          "code": "59847-4"
        } ]
      },
      "subject": {
        "reference": "Patient/6f5a4631aa1afa9fb3b290f6bb86163ea01f9b24bd1170e5d79a0c36995c2c57"
      },
      "focus": [ {
        "reference": "Condition/ada766c1f2eea7625dc4d9bac33d99d0f2a3606376cfa0798fa7c839be6f1e16"
      } ],
      "effectiveDateTime": "2017-07-02",
      "valueCodeableConcept": {
        "coding": [ {
          "system": "http://terminology.hl7.org/CodeSystem/icd-o-3",
          "version": "32",
          "code": "8461/3"
        } ],
        "text": "Seröses papilläres Oberflächenkarzinom"
      },
      "specimen": {
        "reference": "Specimen/5cdea52c0023bfe2eeab5ddcf50d778fd03d49641275c5465d3d1070f17c4a2c"
      }
    },
    "request": {
      "method": "PUT",
      "url": "Observation/240f120caf69415a45a8f726313446dbb68f5789cf8c98f9a2a22b0c8e5479b3"
    }
  }, {
    "fullUrl": "Observation/1e7d5d97cd0cd644942036d8c612b5421ccda0a6d0fd2c961d02d028f7c086dd",
    "resource": {
      "resourceType": "Observation",
      "id": "1e7d5d97cd0cd644942036d8c612b5421ccda0a6d0fd2c961d02d028f7c086dd",
      "meta": {
        "profile": [ "https://www.medizininformatik-initiative.de/fhir/ext/modul-onko/StructureDefinition/mii-pr-onko-grading" ]
      },
      "identifier": [ {
        "system": "https://bzkf.github.io/obds-to-fhir/identifiers/grading-observation-id",
        "value": "280-grading"
      } ],
      "status": "final",
      "category": [ {
        "coding": [ {
          "system": "http://terminology.hl7.org/CodeSystem/observation-category",
          "code": "laboratory"
        } ]
      } ],
      "code": {
        "coding": [ {
          "system": "http://loinc.org",
          "code": "33732-9"
        }, {
          "system": "http://snomed.info/sct",
          "code": "371469007"
        } ]
      },
      "subject": {
        "reference": "Patient/6f5a4631aa1afa9fb3b290f6bb86163ea01f9b24bd1170e5d79a0c36995c2c57"
      },
      "focus": [ {
        "reference": "Condition/ada766c1f2eea7625dc4d9bac33d99d0f2a3606376cfa0798fa7c839be6f1e16"
      } ],
      "effectiveDateTime": "2017-07-02",
      "valueCodeableConcept": {
        "coding": [ {
          "system": "https://www.medizininformatik-initiative.de/fhir/ext/modul-onko/CodeSystem/mii-cs-onko-grading",
          "code": "3"
        } ]
      },
      "specimen": {
        "reference": "Specimen/5cdea52c0023bfe2eeab5ddcf50d778fd03d49641275c5465d3d1070f17c4a2c"
      }
    },
    "request": {
      "method": "PUT",
      "url": "Observation/1e7d5d97cd0cd644942036d8c612b5421ccda0a6d0fd2c961d02d028f7c086dd"
    }
  }, {
    "fullUrl": "Observation/ef4e04289c2a4f1c31a2c72619903ebd1904f397f7de67178f6497157ffa0d44",
    "resource": {
      "resourceType": "Observation",
      "id": "ef4e04289c2a4f1c31a2c72619903ebd1904f397f7de67178f6497157ffa0d44",
      "meta": {
        "profile": [ "https://www.medizininformatik-initiative.de/fhir/ext/modul-onko/StructureDefinition/mii-pr-onko-weitere-klassifikationen" ]
      },
      "identifier": [ {
        "system": "https://bzkf.github.io/obds-to-fhir/identifiers/weitere-klassifikation-observation-id",
        "value": "12_1_DI-1-figo"
      } ],
      "status": "final",
      "code": {
        "text": "FIGO"
      },
      "subject": {
        "reference": "Patient/6f5a4631aa1afa9fb3b290f6bb86163ea01f9b24bd1170e5d79a0c36995c2c57"
      },
      "focus": [ {
        "reference": "Condition/ada766c1f2eea7625dc4d9bac33d99d0f2a3606376cfa0798fa7c839be6f1e16"
      } ],
      "effectiveDateTime": "2017-07-02",
      "valueCodeableConcept": {
        "coding": [ {
          "code": "IIIB"
        } ]
      }
    },
    "request": {
      "method": "PUT",
      "url": "Observation/ef4e04289c2a4f1c31a2c72619903ebd1904f397f7de67178f6497157ffa0d44"
    }
  }, {
    "fullUrl": "Procedure/e722bcc3a86e05e00a0fe5566607b4293be976500750ed2de2f48280b7fba359",
    "resource": {
      "resourceType": "Procedure",
      "id": "e722bcc3a86e05e00a0fe5566607b4293be976500750ed2de2f48280b7fba359",
      "meta": {
        "profile": [ "https://www.medizininformatik-initiative.de/fhir/ext/modul-onko/StructureDefinition/mii-pr-onko-systemische-therapie" ]
      },
      "extension": [ {
        "url": "https://www.medizininformatik-initiative.de/fhir/ext/modul-onko/StructureDefinition/mii-ex-onko-systemische-therapie-intention",
        "valueCodeableConcept": {
          "coding": [ {
            "system": "https://www.medizininformatik-initiative.de/fhir/ext/modul-onko/CodeSystem/mii-cs-onko-intention",
            "code": "P"
          } ]
        }
      }, {
        "url": "https://www.medizininformatik-initiative.de/fhir/ext/modul-onko/StructureDefinition/mii-ex-onko-strahlentherapie-stellungzurop",
        "valueCodeableConcept": {
          "coding": [ {
            "system": "https://www.medizininformatik-initiative.de/fhir/ext/modul-onko/CodeSystem/mii-cs-therapie-stellungzurop",
            "code": "O"
          } ]
        }
      } ],
      "identifier": [ {
        "system": "https://bzkf.github.io/obds-to-fhir/identifiers/systemische-therapie-procedure-id",
        "value": "12_1_Innere.1"
      } ],
      "status": "in-progress",
      "category": {
        "coding": [ {
          "system": "http://snomed.info/sct",
          "code": "18629005"
        } ]
      },
      "code": {
        "coding": [ {
          "system": "http://fhir.de/CodeSystem/bfarm/ops",
          "code": "8-54"
        }, {
          "system": "https://www.medizininformatik-initiative.de/fhir/ext/modul-onko/CodeSystem/mii-cs-onko-therapie-typ",
          "code": "CH"
        } ]
      },
      "subject": {
        "reference": "Patient/6f5a4631aa1afa9fb3b290f6bb86163ea01f9b24bd1170e5d79a0c36995c2c57"
      },
      "performedPeriod": {
        "start": "2018-03-17"
      }
    },
    "request": {
      "method": "PUT",
      "url": "Procedure/e722bcc3a86e05e00a0fe5566607b4293be976500750ed2de2f48280b7fba359"
    }
  }, {
    "fullUrl": "MedicationStatement/da9d78a5d066bba6acd32a9a903c8663ecc1421cb373dcb51566b6d23dd30df7",
    "resource": {
      "resourceType": "MedicationStatement",
      "id": "da9d78a5d066bba6acd32a9a903c8663ecc1421cb373dcb51566b6d23dd30df7",
      "meta": {
        "profile": [ "https://www.medizininformatik-initiative.de/fhir/core/modul-medikation/StructureDefinition/MedicationStatement" ]
      },
      "identifier": [ {
        "system": "https://bzkf.github.io/obds-to-fhir/identifiers/systemische-therapie-medication-statement-id",
        "value": "12_1_Innere.1_Paclitaxel_a0a4"
      } ],
      "partOf": [ {
        "reference": "Procedure/e722bcc3a86e05e00a0fe5566607b4293be976500750ed2de2f48280b7fba359"
      } ],
      "status": "active",
      "medicationCodeableConcept": {
        "text": "Paclitaxel"
      },
      "subject": {
        "reference": "Patient/6f5a4631aa1afa9fb3b290f6bb86163ea01f9b24bd1170e5d79a0c36995c2c57"
      },
      "effectivePeriod": {
        "start": "2018-03-17"
      }
    },
    "request": {
      "method": "PUT",
      "url": "MedicationStatement/da9d78a5d066bba6acd32a9a903c8663ecc1421cb373dcb51566b6d23dd30df7"
    }
  }, {
    "fullUrl": "Observation/4c833e80319d499f13d4213efff6bf33ae4921999ca97bd40363c01a4430c2e1",
    "resource": {
      "resourceType": "Observation",
      "id": "4c833e80319d499f13d4213efff6bf33ae4921999ca97bd40363c01a4430c2e1",
      "meta": {
        "profile": [ "https://www.medizininformatik-initiative.de/fhir/ext/modul-onko/StructureDefinition/mii-pr-onko-verlauf" ]
      },
      "identifier": [ {
        "system": "https://bzkf.github.io/obds-to-fhir/identifiers/observation-verlauf-id",
        "value": "1.2.3"
      } ],
      "status": "final",
      "code": {
        "coding": [ {
          "system": "http://snomed.info/sct",
          "code": "396432002",
          "display": "Status of regression of tumor (observable entity)"
        } ]
      },
      "subject": {
        "reference": "Patient/6f5a4631aa1afa9fb3b290f6bb86163ea01f9b24bd1170e5d79a0c36995c2c57"
      },
      "focus": [ {
        "reference": "Condition/ada766c1f2eea7625dc4d9bac33d99d0f2a3606376cfa0798fa7c839be6f1e16"
      } ],
      "effectiveDateTime": "2018-06-02",
      "valueCodeableConcept": {
        "coding": [ {
          "system": "https://www.medizininformatik-initiative.de/fhir/ext/modul-onko/CodeSystem/mii-cs-onko-verlauf-gesamtbeurteilung",
          "code": "P",
          "display": "Progression"
        } ]
      },
      "component": [ {
        "code": {
          "coding": [ {
            "system": "http://snomed.info/sct",
            "code": "277062004",
            "display": "Status des Residualtumors"
          } ]
        },
        "valueCodeableConcept": {
          "coding": [ {
            "system": "https://www.medizininformatik-initiative.de/fhir/ext/modul-onko/CodeSystem/mii-cs-onko-verlauf-primaertumor",
            "code": "K",
            "display": "kein Tumor nachweisbar"
          } ]
        }
      }, {
        "code": {
          "coding": [ {
            "system": "http://snomed.info/sct",
            "code": "399656008",
            "display": "Status of tumor metastasis to regional lymph nodes (observable entity)"
          } ]
        },
        "valueCodeableConcept": {
          "coding": [ {
            "system": "https://www.medizininformatik-initiative.de/fhir/ext/modul-onko/CodeSystem/mii-cs-onko-verlauf-lymphknoten",
            "code": "K",
            "display": "kein Lymphknotenbefall nachweisbar"
          } ]
        }
      }, {
        "code": {
          "coding": [ {
            "system": "http://snomed.info/sct",
            "code": "399608002",
            "display": "Status of distant metastasis (observable entity)"
          } ]
        },
        "valueCodeableConcept": {
          "coding": [ {
            "system": "https://www.medizininformatik-initiative.de/fhir/ext/modul-onko/CodeSystem/mii-cs-onko-verlauf-fernmetastasen",
            "code": "R",
            "display": "neu aufgetretene Fernmetastase(n) bzw. Metastasenrezidiv"
          } ]
        }
      } ]
    },
    "request": {
      "method": "PUT",
      "url": "Observation/4c833e80319d499f13d4213efff6bf33ae4921999ca97bd40363c01a4430c2e1"
    }
  }, {
    "fullUrl": "Observation/e7950487ad664f6ad1245f805c59d22d06ef2a0ad923901f680e3fa577965122",
    "resource": {
      "resourceType": "Observation",
      "id": "e7950487ad664f6ad1245f805c59d22d06ef2a0ad923901f680e3fa577965122",
      "meta": {
        "profile": [ "https://www.medizininformatik-initiative.de/fhir/ext/modul-onko/StructureDefinition/mii-pr-onko-allgemeiner-leistungszustand-ecog" ]
      },
      "identifier": [ {
        "system": "https://bzkf.github.io/obds-to-fhir/identifiers/allgemeiner-leistungszustand-ecog-id",
        "value": "ECOG-12_1_VE_1"
      } ],
      "status": "final",
      "code": {
        "coding": [ {
          "system": "http://snomed.info/sct",
          "code": "423740007"
        } ]
      },
      "subject": {
        "reference": "Patient/6f5a4631aa1afa9fb3b290f6bb86163ea01f9b24bd1170e5d79a0c36995c2c57"
      },
      "focus": [ {
        "reference": "Condition/ada766c1f2eea7625dc4d9bac33d99d0f2a3606376cfa0798fa7c839be6f1e16"
      } ],
      "effectiveDateTime": "2018-06-02",
      "valueCodeableConcept": {
        "coding": [ {
          "system": "https://www.medizininformatik-initiative.de/fhir/ext/modul-onko/CodeSystem/mii-cs-onko-allgemeiner-leistungszustand-ecog",
          "code": "2",
          "display": "Gehfähig, Selbstversorgung möglich, aber nicht arbeitsfähig; kann mehr als 50 % der Wachzeit aufstehen (50 - 60 % nach Karnofsky)"
        } ]
      }
    },
    "request": {
      "method": "PUT",
      "url": "Observation/e7950487ad664f6ad1245f805c59d22d06ef2a0ad923901f680e3fa577965122"
    }
  }, {
    "fullUrl": "Procedure/eb50819015978eaa445c1a6553dfee33010b305162808c044e7a667293050216",
    "resource": {
      "resourceType": "Procedure",
      "id": "eb50819015978eaa445c1a6553dfee33010b305162808c044e7a667293050216",
      "meta": {
        "profile": [ "https://www.medizininformatik-initiative.de/fhir/ext/modul-onko/StructureDefinition/mii-pr-onko-strahlentherapie" ]
      },
      "extension": [ {
        "url": "https://www.medizininformatik-initiative.de/fhir/ext/modul-onko/StructureDefinition/mii-ex-onko-strahlentherapie-intention",
        "valueCodeableConcept": {
          "coding": [ {
            "system": "https://www.medizininformatik-initiative.de/fhir/ext/modul-onko/CodeSystem/mii-cs-onko-intention",
            "code": "P"
          } ]
        }
      }, {
        "url": "https://www.medizininformatik-initiative.de/fhir/ext/modul-onko/StructureDefinition/mii-ex-onko-strahlentherapie-stellungzurop",
        "valueCodeableConcept": {
          "coding": [ {
            "system": "https://www.medizininformatik-initiative.de/fhir/ext/modul-onko/CodeSystem/mii-cs-therapie-stellungzurop",
            "code": "O"
          } ]
        }
      }, {
        "url": "https://www.medizininformatik-initiative.de/fhir/ext/modul-onko/StructureDefinition/mii-ex-onko-strahlentherapie-bestrahlung",
        "extension": [ {
          "url": "Applikationsart",
          "valueCodeableConcept": {
            "coding": [ {
              "system": "https://www.medizininformatik-initiative.de/fhir/ext/modul-onko/CodeSystem/mii-cs-onko-strahlentherapie-applikationsart",
              "code": "PRCN-ST4D"
            } ]
          }
        }, {
          "url": "Strahlenart",
          "valueCodeableConcept": {
            "coding": [ {
              "system": "https://www.medizininformatik-initiative.de/fhir/ext/modul-onko/CodeSystem/mii-cs-onko-strahlentherapie-strahlenart",
              "code": "NE"
            } ]
          }
        }, {
          "url": "Zielgebiet",
          "valueCodeableConcept": {
            "coding": [ {
              "system": "https://www.medizininformatik-initiative.de/fhir/ext/modul-onko/CodeSystem/mii-cs-onko-strahlentherapie-zielgebiet",
              "code": "1.1."
            } ]
          }
        }, {
          "url": "Zielgebiet_Lateralitaet",
          "valueCodeableConcept": {
            "coding": [ {
              "system": "https://www.medizininformatik-initiative.de/fhir/ext/modul-onko/CodeSystem/mii-cs-onko-seitenlokalisation",
              "code": "T"
            } ]
          }
        }, {
          "url": "Einzeldosis",
          "valueQuantity": {
            "value": 3,
            "unit": "Gy",
            "system": "http://unitsofmeasure.org",
            "code": "Gy"
          }
        }, {
          "url": "Boost",
          "valueCodeableConcept": {
            "coding": [ {
              "system": "https://www.medizininformatik-initiative.de/fhir/ext/modul-onko/CodeSystem/mii-cs-onko-strahlentherapie-boost",
              "code": "J"
            } ]
          }
        } ]
      } ],
      "identifier": [ {
        "system": "https://bzkf.github.io/obds-to-fhir/identifiers/strahlentherapie-procedure-id",
        "value": "12_1_Strahlen.1"
      } ],
      "status": "in-progress",
      "category": {
        "coding": [ {
          "system": "http://snomed.info/sct",
          "code": "1287742003",
          "display": "Radiotherapy (procedure)"
        } ]
      },
      "code": {
        "coding": [ {
          "system": "http://fhir.de/CodeSystem/bfarm/ops",
          "version": "2025",
          "code": "8-52",
          "display": "Strahlentherapie"
        } ]
      },
      "subject": {
        "reference": "Patient/6f5a4631aa1afa9fb3b290f6bb86163ea01f9b24bd1170e5d79a0c36995c2c57"
      },
      "performedPeriod": {
        "start": "2018-06-06"
      },
      "reasonReference": [ {
        "reference": "Condition/ada766c1f2eea7625dc4d9bac33d99d0f2a3606376cfa0798fa7c839be6f1e16"
      } ]
    },
    "request": {
      "method": "PUT",
      "url": "Procedure/eb50819015978eaa445c1a6553dfee33010b305162808c044e7a667293050216"
    }
  } ]
}