{
  "resourceType": "Bundle",
  "id": "43d8d22e39e073fbb83f221071d60fe92e947d234ada77f7401d0eb4d230a849",
  "type": "transaction",
  "entry": [ {
    "fullUrl": "Patient/43d8d22e39e073fbb83f221071d60fe92e947d234ada77f7401d0eb4d230a849",
    "resource": {
      "resourceType": "Patient",
      "id": "43d8d22e39e073fbb83f221071d60fe92e947d234ada77f7401d0eb4d230a849",
      "meta": {
        "profile": [ "https://www.medizininformatik-initiative.de/fhir/core/modul-person/StructureDefinition/PatientPseudonymisiert" ]
      },
      "identifier": [ {
        "type": {
          "coding": [ {
            "system": "http://terminology.hl7.org/CodeSystem/v2-0203",
            "code": "MR",
            "display": "Medical record number"
          }, {
            "system": "http://terminology.hl7.org/CodeSystem/v3-ObservationValue",
            "code": "PSEUDED",
            "display": "pseudonymized"
          } ]
        },
        "system": "https://bzkf.github.io/obds-to-fhir/identifiers/patient-id",
        "value": "19"
      } ],
      "gender": "female",
      "birthDate": "1950-05-01",
      "address": [ {
        "type": "both",
        "postalCode": "12345",
        "country": "DE"
      } ]
    },
    "request": {
      "method": "PUT",
      "url": "Patient/43d8d22e39e073fbb83f221071d60fe92e947d234ada77f7401d0eb4d230a849"
    }
  }, {
    "fullUrl": "Condition/c65dc4a292a235b7490c12e7e4a869e754b1d3ef6c4f75aacfd828e92ba8e920",
    "resource": {
      "resourceType": "Condition",
      "id": "c65dc4a292a235b7490c12e7e4a869e754b1d3ef6c4f75aacfd828e92ba8e920",
      "meta": {
        "profile": [ "https://www.medizininformatik-initiative.de/fhir/ext/modul-onko/StructureDefinition/mii-pr-onko-diagnose-primaertumor" ]
      },
      "extension": [ {
        "url": "https://www.medizininformatik-initiative.de/fhir/ext/modul-onko/StructureDefinition/mii-ex-onko-histology-morphology-behavior-icdo3",
        "valueCodeableConcept": {
          "coding": [ {
            "system": "http://terminology.hl7.org/CodeSystem/icd-o-3",
            "version": "33",
            "code": "8077/2"
          } ]
        }
      }, {
        "url": "http://hl7.org/fhir/StructureDefinition/condition-assertedDate",
        "valueDateTime": "2022-10-02"
      } ],
      "identifier": [ {
        "system": "https://bzkf.github.io/obds-to-fhir/identifiers/primaerdiagnose-id",
        "value": "195"
      } ],
      "verificationStatus": {
        "coding": [ {
          "system": "http://terminology.hl7.org/CodeSystem/condition-ver-status",
          "code": "confirmed"
        }, {
          "system": "https://www.medizininformatik-initiative.de/fhir/ext/modul-onko/CodeSystem/mii-cs-onko-primaertumor-diagnosesicherung",
          "code": "5"
        } ]
      },
      "code": {
        "coding": [ {
          "system": "http://fhir.de/CodeSystem/bfarm/icd-10-gm",
          "version": "2022",
          "code": "D06.9"
        } ]
      },
      "bodySite": [ {
        "coding": [ {
          "system": "http://terminology.hl7.org/CodeSystem/icd-o-3",
          "version": "33",
          "code": "C53.9"
        } ]
      }, {
        "coding": [ {
          "system": "https://www.medizininformatik-initiative.de/fhir/ext/modul-onko/CodeSystem/mii-cs-onko-seitenlokalisation",
          "code": "T"
        } ]
      } ],
      "subject": {
        "reference": "Patient/43d8d22e39e073fbb83f221071d60fe92e947d234ada77f7401d0eb4d230a849"
      },
      "recordedDate": "2024-04-22"
    },
    "request": {
      "method": "PUT",
      "url": "Condition/c65dc4a292a235b7490c12e7e4a869e754b1d3ef6c4f75aacfd828e92ba8e920"
    }
  }, {
    "fullUrl": "Observation/ee9229bfb55adfac28d31404e6774949fe5f9e3e9f3a3a7c6c0e987a1e192d62",
    "resource": {
      "resourceType": "Observation",
      "id": "ee9229bfb55adfac28d31404e6774949fe5f9e3e9f3a3a7c6c0e987a1e192d62",
      "meta": {
        "profile": [ "https://www.medizininformatik-initiative.de/fhir/ext/modul-onko/StructureDefinition/mii-pr-onko-allgemeiner-leistungszustand-ecog" ]
      },
      "identifier": [ {
        "system": "https://bzkf.github.io/obds-to-fhir/identifiers/allgemeiner-leistungszustand-ecog-id",
        "value": "ECOG-10_5_DI_1"
      } ],
      "status": "final",
      "code": {
        "coding": [ {
          "system": "http://snomed.info/sct",
          "code": "423740007"
        } ]
      },
      "subject": {
        "reference": "Patient/43d8d22e39e073fbb83f221071d60fe92e947d234ada77f7401d0eb4d230a849"
      },
      "focus": [ {
        "reference": "Condition/c65dc4a292a235b7490c12e7e4a869e754b1d3ef6c4f75aacfd828e92ba8e920"
      } ],
      "effectiveDateTime": "2022-10-02",
      "valueCodeableConcept": {
        "coding": [ {
          "system": "https://www.medizininformatik-initiative.de/fhir/ext/modul-onko/CodeSystem/mii-cs-onko-allgemeiner-leistungszustand-ecog",
          "code": "0",
          "display": "Normale, uneingeschränkte Aktivität wie vor der Erkrankung (90 - 100 % nach Karnofsky)"
        } ]
      }
    },
    "request": {
      "method": "PUT",
      "url": "Observation/ee9229bfb55adfac28d31404e6774949fe5f9e3e9f3a3a7c6c0e987a1e192d62"
    }
  }, {
    "fullUrl": "Procedure/e05a1e24b4ff9a0191bf1ec8ac695cfb0aa7b3556765aa36b9f58d3275704541",
    "resource": {
      "resourceType": "Procedure",
      "id": "e05a1e24b4ff9a0191bf1ec8ac695cfb0aa7b3556765aa36b9f58d3275704541",
      "meta": {
        "profile": [ "https://www.medizininformatik-initiative.de/fhir/ext/modul-onko/StructureDefinition/mii-pr-onko-operation" ]
      },
      "extension": [ {
        "url": "https://www.medizininformatik-initiative.de/fhir/ext/modul-onko/StructureDefinition/mii-ex-onko-operation-intention",
        "valueCodeableConcept": {
          "coding": [ {
            "system": "https://www.medizininformatik-initiative.de/fhir/ext/modul-onko/CodeSystem/mii-cs-onko-intention",
            "code": "K"
          } ]
        }
      } ],
      "identifier": [ {
        "system": "https://bzkf.github.io/obds-to-fhir/identifiers/operation-procedure-id",
        "value": "295-671.01"
      } ],
      "status": "completed",
      "category": {
        "coding": [ {
          "system": "http://snomed.info/sct",
          "code": "387713003",
          "display": "Surgical procedure"
        } ]
      },
      "code": {
        "coding": [ {
          "system": "http://fhir.de/CodeSystem/bfarm/ops",
          "version": "2022",
          "code": "5-671.01"
        } ]
      },
      "subject": {
        "reference": "Patient/43d8d22e39e073fbb83f221071d60fe92e947d234ada77f7401d0eb4d230a849"
      },
      "performedDateTime": "2022-10-16",
      "reasonReference": [ {
        "reference": "Condition/c65dc4a292a235b7490c12e7e4a869e754b1d3ef6c4f75aacfd828e92ba8e920"
      } ],
      "outcome": {
        "coding": [ {
          "system": "https://www.medizininformatik-initiative.de/fhir/ext/modul-onko/CodeSystem/mii-cs-onko-residualstatus",
          "code": "R0"
        } ]
      }
    },
    "request": {
      "method": "PUT",
      "url": "Procedure/e05a1e24b4ff9a0191bf1ec8ac695cfb0aa7b3556765aa36b9f58d3275704541"
    }
  } ]
}