{
  "resourceType": "Bundle",
  "id": "43d8d22e39e073fbb83f221071d60fe92e947d234ada77f7401d0eb4d230a849",
  "type": "transaction",
  "entry": [ {
    "fullUrl": "Patient/43d8d22e39e073fbb83f221071d60fe92e947d234ada77f7401d0eb4d230a849",
    "resource": {
      "resourceType": "Patient",
      "id": "43d8d22e39e073fbb83f221071d60fe92e947d234ada77f7401d0eb4d230a849",
      "meta": {
        "profile": [ "https://www.medizininformatik-initiative.de/fhir/core/modul-person/StructureDefinition/PatientPseudonymisiert" ]
      },
      "identifier": [ {
        "type": {
          "coding": [ {
            "system": "http://terminology.hl7.org/CodeSystem/v2-0203",
            "code": "MR",
            "display": "Medical record number"
          }, {
            "system": "http://terminology.hl7.org/CodeSystem/v3-ObservationValue",
            "code": "PSEUDED",
            "display": "pseudonymized"
          } ]
        },
        "system": "https://bzkf.github.io/obds-to-fhir/identifiers/patient-id",
        "value": "19"
      } ],
      "gender": "female",
      "birthDate": "1950-05-01",
      "deceasedDateTime": "2023-09-01",
      "address": [ {
        "type": "both",
        "postalCode": "12345",
        "country": "DE"
      } ]
    },
    "request": {
      "method": "PUT",
      "url": "Patient/43d8d22e39e073fbb83f221071d60fe92e947d234ada77f7401d0eb4d230a849"
    }
  }, {
    "fullUrl": "Condition/2b8efc01441d384050dfa3aeaf09e5387eb44563ce35e2e27b40d5d1740d7abf",
    "resource": {
      "resourceType": "Condition",
      "id": "2b8efc01441d384050dfa3aeaf09e5387eb44563ce35e2e27b40d5d1740d7abf",
      "meta": {
        "profile": [ "https://www.medizininformatik-initiative.de/fhir/ext/modul-onko/StructureDefinition/mii-pr-onko-diagnose-primaertumor" ]
      },
      "extension": [ {
        "url": "https://www.medizininformatik-initiative.de/fhir/ext/modul-onko/StructureDefinition/mii-ex-onko-histology-morphology-behavior-icdo3",
        "valueCodeableConcept": {
          "coding": [ {
            "system": "http://terminology.hl7.org/CodeSystem/icd-o-3",
            "version": "33",
            "code": "8077/2"
          } ],
          "text": "Zervikale intraepitheliale Neoplasie Grad 3"
        }
      }, {
        "url": "http://hl7.org/fhir/StructureDefinition/condition-assertedDate",
        "valueDateTime": "2022-10-02"
      } ],
      "identifier": [ {
        "system": "https://bzkf.github.io/obds-to-fhir/identifiers/primaerdiagnose-id",
        "value": "19-195"
      } ],
      "verificationStatus": {
        "coding": [ {
          "system": "http://terminology.hl7.org/CodeSystem/condition-ver-status",
          "code": "confirmed"
        }, {
          "system": "https://www.medizininformatik-initiative.de/fhir/ext/modul-onko/CodeSystem/mii-cs-onko-primaertumor-diagnosesicherung",
          "code": "5"
        } ]
      },
      "code": {
        "coding": [ {
          "system": "http://fhir.de/CodeSystem/bfarm/icd-10-gm",
          "version": "2022",
          "code": "D06.9"
        } ]
      },
      "bodySite": [ {
        "coding": [ {
          "system": "http://terminology.hl7.org/CodeSystem/icd-o-3",
          "version": "33",
          "code": "C53.9"
        } ],
        "text": "Cervix uteri"
      }, {
        "coding": [ {
          "system": "https://www.medizininformatik-initiative.de/fhir/ext/modul-onko/CodeSystem/mii-cs-onko-seitenlokalisation",
          "code": "T"
        }, {
          "system": "http://snomed.info/sct",
          "version": "http://snomed.info/sct/900000000000207008/version/20250501",
          "code": "385432009",
          "display": "Not applicable (qualifier value)"
        } ]
      } ],
      "subject": {
        "reference": "Patient/43d8d22e39e073fbb83f221071d60fe92e947d234ada77f7401d0eb4d230a849"
      },
      "recordedDate": "2024-07-18"
    },
    "request": {
      "method": "PUT",
      "url": "Condition/2b8efc01441d384050dfa3aeaf09e5387eb44563ce35e2e27b40d5d1740d7abf"
    }
  }, {
    "fullUrl": "Procedure/98fcfb802ebdee48a96523798110d80f165723471e708b269aaf054a6d7a4f3a",
    "resource": {
      "resourceType": "Procedure",
      "id": "98fcfb802ebdee48a96523798110d80f165723471e708b269aaf054a6d7a4f3a",
      "meta": {
        "profile": [ "https://www.medizininformatik-initiative.de/fhir/ext/modul-onko/StructureDefinition/mii-pr-onko-operation" ]
      },
      "extension": [ {
        "url": "https://www.medizininformatik-initiative.de/fhir/ext/modul-onko/StructureDefinition/mii-ex-onko-operation-intention",
        "valueCodeableConcept": {
          "coding": [ {
            "system": "https://www.medizininformatik-initiative.de/fhir/ext/modul-onko/CodeSystem/mii-cs-onko-intention",
            "code": "K"
          } ]
        }
      } ],
      "identifier": [ {
        "system": "https://bzkf.github.io/obds-to-fhir/identifiers/operation-procedure-id",
        "value": "2145-671.01"
      } ],
      "status": "completed",
      "category": {
        "coding": [ {
          "system": "http://snomed.info/sct",
          "version": "http://snomed.info/sct/900000000000207008/version/20250501",
          "code": "387713003",
          "display": "Surgical procedure"
        } ]
      },
      "code": {
        "coding": [ {
          "system": "http://fhir.de/CodeSystem/bfarm/ops",
          "version": "2022",
          "code": "5-671.01"
        } ]
      },
      "subject": {
        "reference": "Patient/43d8d22e39e073fbb83f221071d60fe92e947d234ada77f7401d0eb4d230a849"
      },
      "performedDateTime": "2022-10-16",
      "reasonReference": [ {
        "reference": "Condition/2b8efc01441d384050dfa3aeaf09e5387eb44563ce35e2e27b40d5d1740d7abf"
      } ],
      "outcome": {
        "coding": [ {
          "system": "https://www.medizininformatik-initiative.de/fhir/ext/modul-onko/CodeSystem/mii-cs-onko-residualstatus",
          "code": "R0"
        } ]
      }
    },
    "request": {
      "method": "PUT",
      "url": "Procedure/98fcfb802ebdee48a96523798110d80f165723471e708b269aaf054a6d7a4f3a"
    }
  }, {
    "fullUrl": "Observation/964182d74fc3cbd2407b9c39d10460f42727161beb591d47d6587cafa476be19",
    "resource": {
      "resourceType": "Observation",
      "id": "964182d74fc3cbd2407b9c39d10460f42727161beb591d47d6587cafa476be19",
      "identifier": [ {
        "system": "https://bzkf.github.io/obds-to-fhir/identifiers/residualstatus-observation-id",
        "value": "214"
      } ],
      "status": "final",
      "code": {
        "coding": [ {
          "system": "http://loinc.org",
          "version": "2.80",
          "code": "84892-9",
          "display": "Residual tumor classification [Type] in Cancer specimen"
        } ]
      },
      "subject": {
        "reference": "Patient/43d8d22e39e073fbb83f221071d60fe92e947d234ada77f7401d0eb4d230a849"
      },
      "focus": [ {
        "reference": "Condition/2b8efc01441d384050dfa3aeaf09e5387eb44563ce35e2e27b40d5d1740d7abf"
      } ],
      "effectiveDateTime": "2022-10-16",
      "valueCodeableConcept": {
        "coding": [ {
          "system": "https://www.medizininformatik-initiative.de/fhir/ext/modul-onko/CodeSystem/mii-cs-onko-residualstatus",
          "code": "R0"
        } ]
      }
    },
    "request": {
      "method": "PUT",
      "url": "Observation/964182d74fc3cbd2407b9c39d10460f42727161beb591d47d6587cafa476be19"
    }
  }, {
    "fullUrl": "Specimen/c8c6d53c5f5884e0779ec3840ae1fae89076b2efcb1c304dc6e54431de603eba",
    "resource": {
      "resourceType": "Specimen",
      "id": "c8c6d53c5f5884e0779ec3840ae1fae89076b2efcb1c304dc6e54431de603eba",
      "meta": {
        "profile": [ "https://www.medizininformatik-initiative.de/fhir/ext/modul-onko/StructureDefinition/mii-pr-onko-specimen" ]
      },
      "identifier": [ {
        "system": "https://bzkf.github.io/obds-to-fhir/identifiers/specimen-id",
        "value": "366"
      } ],
      "accessionIdentifier": {
        "value": "X/98765/2"
      },
      "subject": {
        "reference": "Patient/43d8d22e39e073fbb83f221071d60fe92e947d234ada77f7401d0eb4d230a849"
      },
      "collection": {
        "collectedDateTime": "2022-10-16"
      }
    },
    "request": {
      "method": "PUT",
      "url": "Specimen/c8c6d53c5f5884e0779ec3840ae1fae89076b2efcb1c304dc6e54431de603eba"
    }
  }, {
    "fullUrl": "Observation/8eb7f2cae93b99085a45613a74fb41f4be367a3399dee09995ad6a17cb509a10",
    "resource": {
      "resourceType": "Observation",
      "id": "8eb7f2cae93b99085a45613a74fb41f4be367a3399dee09995ad6a17cb509a10",
      "meta": {
        "profile": [ "https://www.medizininformatik-initiative.de/fhir/ext/modul-onko/StructureDefinition/mii-pr-onko-histologie-icdo3" ]
      },
      "identifier": [ {
        "system": "https://bzkf.github.io/obds-to-fhir/identifiers/observation-histologie-id",
        "value": "366-ICDO3-8077/2"
      } ],
      "status": "final",
      "code": {
        "coding": [ {
          "system": "http://loinc.org",
          "version": "2.80",
          "code": "59847-4",
          "display": "Histology and Behavior ICD-O-3 Cancer"
        } ]
      },
      "subject": {
        "reference": "Patient/43d8d22e39e073fbb83f221071d60fe92e947d234ada77f7401d0eb4d230a849"
      },
      "focus": [ {
        "reference": "Condition/2b8efc01441d384050dfa3aeaf09e5387eb44563ce35e2e27b40d5d1740d7abf"
      } ],
      "effectiveDateTime": "2022-10-16",
      "valueCodeableConcept": {
        "coding": [ {
          "system": "http://terminology.hl7.org/CodeSystem/icd-o-3",
          "version": "33",
          "code": "8077/2"
        } ],
        "text": "Zervikale intraepitheliale Neoplasie Grad 3"
      },
      "specimen": {
        "reference": "Specimen/c8c6d53c5f5884e0779ec3840ae1fae89076b2efcb1c304dc6e54431de603eba"
      }
    },
    "request": {
      "method": "PUT",
      "url": "Observation/8eb7f2cae93b99085a45613a74fb41f4be367a3399dee09995ad6a17cb509a10"
    }
  }, {
    "fullUrl": "Observation/776bd87eeec7e98757d56b42fbd951102297601d1bfd15877a7fe6fec06415fe",
    "resource": {
      "resourceType": "Observation",
      "id": "776bd87eeec7e98757d56b42fbd951102297601d1bfd15877a7fe6fec06415fe",
      "meta": {
        "profile": [ "https://www.medizininformatik-initiative.de/fhir/ext/modul-onko/StructureDefinition/mii-pr-onko-grading" ]
      },
      "identifier": [ {
        "system": "https://bzkf.github.io/obds-to-fhir/identifiers/grading-observation-id",
        "value": "366-grading"
      } ],
      "status": "final",
      "category": [ {
        "coding": [ {
          "system": "http://terminology.hl7.org/CodeSystem/observation-category",
          "code": "laboratory"
        } ]
      } ],
      "code": {
        "coding": [ {
          "system": "http://loinc.org",
          "version": "2.80",
          "code": "33732-9",
          "display": "Histology grade [Identifier] in Cancer specimen"
        }, {
          "system": "http://snomed.info/sct",
          "version": "http://snomed.info/sct/900000000000207008/version/20250501",
          "code": "371469007",
          "display": "Histologic grade of neoplasm (observable entity)"
        } ]
      },
      "subject": {
        "reference": "Patient/43d8d22e39e073fbb83f221071d60fe92e947d234ada77f7401d0eb4d230a849"
      },
      "focus": [ {
        "reference": "Condition/2b8efc01441d384050dfa3aeaf09e5387eb44563ce35e2e27b40d5d1740d7abf"
      } ],
      "effectiveDateTime": "2022-10-16",
      "valueCodeableConcept": {
        "coding": [ {
          "system": "https://www.medizininformatik-initiative.de/fhir/ext/modul-onko/CodeSystem/mii-cs-onko-grading",
          "code": "T"
        } ]
      },
      "specimen": {
        "reference": "Specimen/c8c6d53c5f5884e0779ec3840ae1fae89076b2efcb1c304dc6e54431de603eba"
      }
    },
    "request": {
      "method": "PUT",
      "url": "Observation/776bd87eeec7e98757d56b42fbd951102297601d1bfd15877a7fe6fec06415fe"
    }
  }, {
    "fullUrl": "Observation/36280c7d6af56249a4613a9f89c8ac1df959a30a41e9246639ec3e12aa68af05",
    "resource": {
      "resourceType": "Observation",
      "id": "36280c7d6af56249a4613a9f89c8ac1df959a30a41e9246639ec3e12aa68af05",
      "meta": {
        "profile": [ "https://www.medizininformatik-initiative.de/fhir/ext/modul-onko/StructureDefinition/mii-pr-onko-tnm-t-kategorie" ]
      },
      "identifier": [ {
        "system": "https://bzkf.github.io/obds-to-fhir/identifiers/tnm-t-kategorie-observation-id",
        "value": "343_T"
      } ],
      "status": "final",
      "code": {
        "extension": [ {
          "url": "https://www.medizininformatik-initiative.de/fhir/ext/modul-onko/StructureDefinition/mii-ex-onko-tnm-cp-praefix",
          "valueCodeableConcept": {
            "coding": [ {
              "system": "https://www.uicc.org/resources/tnm",
              "code": "p"
            } ]
          }
        } ],
        "coding": [ {
          "system": "http://snomed.info/sct",
          "version": "http://snomed.info/sct/900000000000207008/version/20250501",
          "code": "384625004",
          "display": "pT category (observable entity)"
        } ]
      },
      "subject": {
        "reference": "Patient/43d8d22e39e073fbb83f221071d60fe92e947d234ada77f7401d0eb4d230a849"
      },
      "focus": [ {
        "reference": "Condition/2b8efc01441d384050dfa3aeaf09e5387eb44563ce35e2e27b40d5d1740d7abf"
      } ],
      "effectiveDateTime": "2022-10-16",
      "valueCodeableConcept": {
        "coding": [ {
          "system": "https://www.uicc.org/resources/tnm",
          "code": "Tis"
        } ]
      },
      "method": {
        "coding": [ {
          "system": "https://www.medizininformatik-initiative.de/fhir/ext/modul-onko/CodeSystem/mii-cs-onko-tnm-version",
          "code": "8"
        } ]
      }
    },
    "request": {
      "method": "PUT",
      "url": "Observation/36280c7d6af56249a4613a9f89c8ac1df959a30a41e9246639ec3e12aa68af05"
    }
  }, {
    "fullUrl": "Observation/6eeda128bb26c2a2583421d4e203efba9476c0dc40fce2d1dbe84c1e6b4fdb87",
    "resource": {
      "resourceType": "Observation",
      "id": "6eeda128bb26c2a2583421d4e203efba9476c0dc40fce2d1dbe84c1e6b4fdb87",
      "meta": {
        "profile": [ "https://www.medizininformatik-initiative.de/fhir/ext/modul-onko/StructureDefinition/mii-pr-onko-tnm-klassifikation" ]
      },
      "identifier": [ {
        "system": "https://bzkf.github.io/obds-to-fhir/identifiers/tnm-grouping-observation-id",
        "value": "343"
      } ],
      "status": "final",
      "code": {
        "coding": [ {
          "system": "http://snomed.info/sct",
          "version": "http://snomed.info/sct/900000000000207008/version/20250501",
          "code": "399390009",
          "display": "TNM stage grouping"
        } ]
      },
      "subject": {
        "reference": "Patient/43d8d22e39e073fbb83f221071d60fe92e947d234ada77f7401d0eb4d230a849"
      },
      "focus": [ {
        "reference": "Condition/2b8efc01441d384050dfa3aeaf09e5387eb44563ce35e2e27b40d5d1740d7abf"
      } ],
      "effectiveDateTime": "2022-10-16",
      "valueCodeableConcept": {
        "coding": [ {
          "system": "https://www.uicc.org/resources/tnm",
          "code": "0",
          "display": "Stadium 0"
        } ]
      },
      "method": {
        "coding": [ {
          "system": "https://www.medizininformatik-initiative.de/fhir/ext/modul-onko/CodeSystem/mii-cs-onko-tnm-version",
          "code": "8"
        } ]
      },
      "hasMember": [ {
        "reference": "Observation/36280c7d6af56249a4613a9f89c8ac1df959a30a41e9246639ec3e12aa68af05"
      } ]
    },
    "request": {
      "method": "PUT",
      "url": "Observation/6eeda128bb26c2a2583421d4e203efba9476c0dc40fce2d1dbe84c1e6b4fdb87"
    }
  }, {
    "fullUrl": "Observation/00bc059637d5d424a03744bd23c0c94dab11e4b66dc9aa0d4820a037a4cb2844",
    "resource": {
      "resourceType": "Observation",
      "id": "00bc059637d5d424a03744bd23c0c94dab11e4b66dc9aa0d4820a037a4cb2844",
      "meta": {
        "profile": [ "https://www.medizininformatik-initiative.de/fhir/ext/modul-onko/StructureDefinition/mii-pr-onko-verlauf" ]
      },
      "identifier": [ {
        "system": "https://bzkf.github.io/obds-to-fhir/identifiers/observation-verlauf-id",
        "value": "238"
      } ],
      "status": "final",
      "code": {
        "coding": [ {
          "system": "http://snomed.info/sct",
          "version": "http://snomed.info/sct/900000000000207008/version/20250501",
          "code": "396432002",
          "display": "Status of regression of tumor (observable entity)"
        } ]
      },
      "subject": {
        "reference": "Patient/43d8d22e39e073fbb83f221071d60fe92e947d234ada77f7401d0eb4d230a849"
      },
      "focus": [ {
        "reference": "Condition/2b8efc01441d384050dfa3aeaf09e5387eb44563ce35e2e27b40d5d1740d7abf"
      } ],
      "effectiveDateTime": "2023-08-14",
      "valueCodeableConcept": {
        "coding": [ {
          "system": "https://www.medizininformatik-initiative.de/fhir/ext/modul-onko/CodeSystem/mii-cs-onko-verlauf-gesamtbeurteilung",
          "code": "V",
          "display": "Vollremission"
        } ]
      },
      "component": [ {
        "code": {
          "coding": [ {
            "system": "http://snomed.info/sct",
            "version": "http://snomed.info/sct/900000000000207008/version/20250501",
            "code": "277062004",
            "display": "Status des Residualtumors"
          } ]
        },
        "valueCodeableConcept": {
          "coding": [ {
            "system": "https://www.medizininformatik-initiative.de/fhir/ext/modul-onko/CodeSystem/mii-cs-onko-verlauf-primaertumor",
            "code": "K",
            "display": "kein Tumor nachweisbar"
          } ]
        }
      }, {
        "code": {
          "coding": [ {
            "system": "http://snomed.info/sct",
            "version": "http://snomed.info/sct/900000000000207008/version/20250501",
            "code": "399656008",
            "display": "Status of tumor metastasis to regional lymph nodes (observable entity)"
          } ]
        },
        "valueCodeableConcept": {
          "coding": [ {
            "system": "https://www.medizininformatik-initiative.de/fhir/ext/modul-onko/CodeSystem/mii-cs-onko-verlauf-lymphknoten",
            "code": "K",
            "display": "kein Lymphknotenbefall nachweisbar"
          } ]
        }
      }, {
        "code": {
          "coding": [ {
            "system": "http://snomed.info/sct",
            "version": "http://snomed.info/sct/900000000000207008/version/20250501",
            "code": "399608002",
            "display": "Status of distant metastasis (observable entity)"
          } ]
        },
        "valueCodeableConcept": {
          "coding": [ {
            "system": "https://www.medizininformatik-initiative.de/fhir/ext/modul-onko/CodeSystem/mii-cs-onko-verlauf-fernmetastasen",
            "code": "K",
            "display": "keine Fernmetastasen nachweisbar"
          } ]
        }
      } ]
    },
    "request": {
      "method": "PUT",
      "url": "Observation/00bc059637d5d424a03744bd23c0c94dab11e4b66dc9aa0d4820a037a4cb2844"
    }
  }, {
    "fullUrl": "Observation/7ef92467d95536ced709834b2e49616411a0a245c7cfdb4b014430dffbefe40c",
    "resource": {
      "resourceType": "Observation",
      "id": "7ef92467d95536ced709834b2e49616411a0a245c7cfdb4b014430dffbefe40c",
      "meta": {
        "profile": [ "https://www.medizininformatik-initiative.de/fhir/ext/modul-onko/StructureDefinition/mii-pr-onko-allgemeiner-leistungszustand-ecog" ]
      },
      "identifier": [ {
        "system": "https://bzkf.github.io/obds-to-fhir/identifiers/allgemeiner-leistungszustand-ecog-id",
        "value": "ECOG-VER_19503"
      } ],
      "status": "final",
      "code": {
        "coding": [ {
          "system": "http://snomed.info/sct",
          "version": "http://snomed.info/sct/900000000000207008/version/20250501",
          "code": "423740007",
          "display": "Eastern Cooperative Oncology Group performance status (observable entity)"
        } ]
      },
      "subject": {
        "reference": "Patient/43d8d22e39e073fbb83f221071d60fe92e947d234ada77f7401d0eb4d230a849"
      },
      "focus": [ {
        "reference": "Condition/2b8efc01441d384050dfa3aeaf09e5387eb44563ce35e2e27b40d5d1740d7abf"
      } ],
      "effectiveDateTime": "2023-08-14",
      "valueCodeableConcept": {
        "coding": [ {
          "system": "https://www.medizininformatik-initiative.de/fhir/ext/modul-onko/CodeSystem/mii-cs-onko-allgemeiner-leistungszustand-ecog",
          "code": "0",
          "display": "Normale, uneingeschränkte Aktivität wie vor der Erkrankung (90 - 100 % nach Karnofsky)"
        } ]
      }
    },
    "request": {
      "method": "PUT",
      "url": "Observation/7ef92467d95536ced709834b2e49616411a0a245c7cfdb4b014430dffbefe40c"
    }
  }, {
    "fullUrl": "Observation/4fc8afcd685845e70f79a2a69710419e3978b3aef7a1082e2612d8d1c0227050",
    "resource": {
      "resourceType": "Observation",
      "id": "4fc8afcd685845e70f79a2a69710419e3978b3aef7a1082e2612d8d1c0227050",
      "meta": {
        "profile": [ "https://www.medizininformatik-initiative.de/fhir/ext/modul-onko/StructureDefinition/mii-pr-onko-tod" ]
      },
      "identifier": [ {
        "system": "https://bzkf.github.io/obds-to-fhir/identifiers/tod-observation-id",
        "value": "104_2023-09-01"
      } ],
      "status": "final",
      "code": {
        "coding": [ {
          "system": "http://snomed.info/sct",
          "version": "http://snomed.info/sct/900000000000207008/version/20250501",
          "code": "184305005",
          "display": "Cause of death (observable entity)"
        } ]
      },
      "subject": {
        "reference": "Patient/43d8d22e39e073fbb83f221071d60fe92e947d234ada77f7401d0eb4d230a849"
      },
      "focus": [ {
        "reference": "Condition/2b8efc01441d384050dfa3aeaf09e5387eb44563ce35e2e27b40d5d1740d7abf"
      } ],
      "effectiveDateTime": "2023-09-01",
      "interpretation": [ {
        "coding": [ {
          "system": "https://www.medizininformatik-initiative.de/fhir/ext/modul-onko/CodeSystem/mii-cs-onko-tod",
          "code": "N"
        } ]
      } ]
    },
    "request": {
      "method": "PUT",
      "url": "Observation/4fc8afcd685845e70f79a2a69710419e3978b3aef7a1082e2612d8d1c0227050"
    }
  }, {
    "fullUrl": "Observation/ee9229bfb55adfac28d31404e6774949fe5f9e3e9f3a3a7c6c0e987a1e192d62",
    "resource": {
      "resourceType": "Observation",
      "id": "ee9229bfb55adfac28d31404e6774949fe5f9e3e9f3a3a7c6c0e987a1e192d62",
      "meta": {
        "profile": [ "https://www.medizininformatik-initiative.de/fhir/ext/modul-onko/StructureDefinition/mii-pr-onko-allgemeiner-leistungszustand-ecog" ]
      },
      "identifier": [ {
        "system": "https://bzkf.github.io/obds-to-fhir/identifiers/allgemeiner-leistungszustand-ecog-id",
        "value": "ECOG-10_5_DI_1"
      } ],
      "status": "final",
      "code": {
        "coding": [ {
          "system": "http://snomed.info/sct",
          "version": "http://snomed.info/sct/900000000000207008/version/20250501",
          "code": "423740007",
          "display": "Eastern Cooperative Oncology Group performance status (observable entity)"
        } ]
      },
      "subject": {
        "reference": "Patient/43d8d22e39e073fbb83f221071d60fe92e947d234ada77f7401d0eb4d230a849"
      },
      "focus": [ {
        "reference": "Condition/2b8efc01441d384050dfa3aeaf09e5387eb44563ce35e2e27b40d5d1740d7abf"
      } ],
      "effectiveDateTime": "2022-10-02",
      "valueCodeableConcept": {
        "coding": [ {
          "system": "https://www.medizininformatik-initiative.de/fhir/ext/modul-onko/CodeSystem/mii-cs-onko-allgemeiner-leistungszustand-ecog",
          "code": "0",
          "display": "Normale, uneingeschränkte Aktivität wie vor der Erkrankung (90 - 100 % nach Karnofsky)"
        } ]
      }
    },
    "request": {
      "method": "PUT",
      "url": "Observation/ee9229bfb55adfac28d31404e6774949fe5f9e3e9f3a3a7c6c0e987a1e192d62"
    }
  }, {
    "fullUrl": "Specimen/c2f33b4bbaa5379d0965d1db67f738ca6fc01059cf708b8df5b196c72681b480",
    "resource": {
      "resourceType": "Specimen",
      "id": "c2f33b4bbaa5379d0965d1db67f738ca6fc01059cf708b8df5b196c72681b480",
      "meta": {
        "profile": [ "https://www.medizininformatik-initiative.de/fhir/ext/modul-onko/StructureDefinition/mii-pr-onko-specimen" ]
      },
      "identifier": [ {
        "system": "https://bzkf.github.io/obds-to-fhir/identifiers/specimen-id",
        "value": "365"
      } ],
      "accessionIdentifier": {
        "value": "X/98765/1"
      },
      "subject": {
        "reference": "Patient/43d8d22e39e073fbb83f221071d60fe92e947d234ada77f7401d0eb4d230a849"
      },
      "collection": {
        "collectedDateTime": "2022-10-03"
      }
    },
    "request": {
      "method": "PUT",
      "url": "Specimen/c2f33b4bbaa5379d0965d1db67f738ca6fc01059cf708b8df5b196c72681b480"
    }
  }, {
    "fullUrl": "Observation/91560d1576a1a8e6448bf364bca3fc67bf7f594cffd5e6a4785ca430ef2eb83a",
    "resource": {
      "resourceType": "Observation",
      "id": "91560d1576a1a8e6448bf364bca3fc67bf7f594cffd5e6a4785ca430ef2eb83a",
      "meta": {
        "profile": [ "https://www.medizininformatik-initiative.de/fhir/ext/modul-onko/StructureDefinition/mii-pr-onko-grading" ]
      },
      "identifier": [ {
        "system": "https://bzkf.github.io/obds-to-fhir/identifiers/grading-observation-id",
        "value": "365-grading"
      } ],
      "status": "final",
      "category": [ {
        "coding": [ {
          "system": "http://terminology.hl7.org/CodeSystem/observation-category",
          "code": "laboratory"
        } ]
      } ],
      "code": {
        "coding": [ {
          "system": "http://loinc.org",
          "version": "2.80",
          "code": "33732-9",
          "display": "Histology grade [Identifier] in Cancer specimen"
        }, {
          "system": "http://snomed.info/sct",
          "version": "http://snomed.info/sct/900000000000207008/version/20250501",
          "code": "371469007",
          "display": "Histologic grade of neoplasm (observable entity)"
        } ]
      },
      "subject": {
        "reference": "Patient/43d8d22e39e073fbb83f221071d60fe92e947d234ada77f7401d0eb4d230a849"
      },
      "focus": [ {
        "reference": "Condition/2b8efc01441d384050dfa3aeaf09e5387eb44563ce35e2e27b40d5d1740d7abf"
      } ],
      "effectiveDateTime": "2022-10-03",
      "valueCodeableConcept": {
        "coding": [ {
          "system": "https://www.medizininformatik-initiative.de/fhir/ext/modul-onko/CodeSystem/mii-cs-onko-grading",
          "code": "T"
        } ]
      },
      "specimen": {
        "reference": "Specimen/c2f33b4bbaa5379d0965d1db67f738ca6fc01059cf708b8df5b196c72681b480"
      }
    },
    "request": {
      "method": "PUT",
      "url": "Observation/91560d1576a1a8e6448bf364bca3fc67bf7f594cffd5e6a4785ca430ef2eb83a"
    }
  }, {
    "fullUrl": "Observation/f188bf42ff1a143c3cf83257db96c935df093c6de96f214d7ce30c74e4ac2912",
    "resource": {
      "resourceType": "Observation",
      "id": "f188bf42ff1a143c3cf83257db96c935df093c6de96f214d7ce30c74e4ac2912",
      "meta": {
        "profile": [ "https://www.medizininformatik-initiative.de/fhir/ext/modul-onko/StructureDefinition/mii-pr-onko-studienteilnahme" ]
      },
      "identifier": [ {
        "system": "https://bzkf.github.io/obds-to-fhir/identifiers/studienteilnahme-id",
        "value": "10_5_DI_1_Studienteilnahme"
      } ],
      "status": "final",
      "code": {
        "coding": [ {
          "system": "http://snomed.info/sct",
          "version": "http://snomed.info/sct/900000000000207008/version/20250501",
          "code": "709491003",
          "display": "Enrollment in clinical trial (procedure)"
        } ]
      },
      "subject": {
        "reference": "Patient/43d8d22e39e073fbb83f221071d60fe92e947d234ada77f7401d0eb4d230a849"
      },
      "focus": [ {
        "reference": "Condition/2b8efc01441d384050dfa3aeaf09e5387eb44563ce35e2e27b40d5d1740d7abf"
      } ],
      "valueCodeableConcept": {
        "coding": [ {
          "system": "https://www.medizininformatik-initiative.de/fhir/ext/modul-onko/CodeSystem/mii-cs-onko-studienteilnahme",
          "code": "N"
        } ]
      }
    },
    "request": {
      "method": "PUT",
      "url": "Observation/f188bf42ff1a143c3cf83257db96c935df093c6de96f214d7ce30c74e4ac2912"
    }
  }, {
    "fullUrl": "Observation/68c220c637986d32c2dec5afbd82715bb7f5d6edf95ff2ff07c6f65b173d5d0f",
    "resource": {
      "resourceType": "Observation",
      "id": "68c220c637986d32c2dec5afbd82715bb7f5d6edf95ff2ff07c6f65b173d5d0f",
      "meta": {
        "profile": [ "https://www.medizininformatik-initiative.de/fhir/ext/modul-onko/StructureDefinition/mii-pr-onko-tnm-t-kategorie" ]
      },
      "identifier": [ {
        "system": "https://bzkf.github.io/obds-to-fhir/identifiers/tnm-t-kategorie-observation-id",
        "value": "341-c_T"
      } ],
      "status": "final",
      "code": {
        "extension": [ {
          "url": "https://www.medizininformatik-initiative.de/fhir/ext/modul-onko/StructureDefinition/mii-ex-onko-tnm-cp-praefix",
          "valueCodeableConcept": {
            "coding": [ {
              "system": "https://www.uicc.org/resources/tnm",
              "code": "c"
            } ]
          }
        } ],
        "coding": [ {
          "system": "http://snomed.info/sct",
          "version": "http://snomed.info/sct/900000000000207008/version/20250501",
          "code": "399504009",
          "display": "cT category (observable entity)"
        } ]
      },
      "subject": {
        "reference": "Patient/43d8d22e39e073fbb83f221071d60fe92e947d234ada77f7401d0eb4d230a849"
      },
      "focus": [ {
        "reference": "Condition/2b8efc01441d384050dfa3aeaf09e5387eb44563ce35e2e27b40d5d1740d7abf"
      } ],
      "effectiveDateTime": "2022-10-02",
      "valueCodeableConcept": {
        "coding": [ {
          "system": "https://www.uicc.org/resources/tnm",
          "code": "Tis"
        } ]
      },
      "method": {
        "coding": [ {
          "system": "https://www.medizininformatik-initiative.de/fhir/ext/modul-onko/CodeSystem/mii-cs-onko-tnm-version",
          "code": "8"
        } ]
      }
    },
    "request": {
      "method": "PUT",
      "url": "Observation/68c220c637986d32c2dec5afbd82715bb7f5d6edf95ff2ff07c6f65b173d5d0f"
    }
  }, {
    "fullUrl": "Observation/7f3fbd8b44d4434aa716ec9de0a24b4a159ef65f6640f8960f62aae115a7c63b",
    "resource": {
      "resourceType": "Observation",
      "id": "7f3fbd8b44d4434aa716ec9de0a24b4a159ef65f6640f8960f62aae115a7c63b",
      "meta": {
        "profile": [ "https://www.medizininformatik-initiative.de/fhir/ext/modul-onko/StructureDefinition/mii-pr-onko-tnm-n-kategorie" ]
      },
      "identifier": [ {
        "system": "https://bzkf.github.io/obds-to-fhir/identifiers/tnm-n-kategorie-observation-id",
        "value": "341-c_N"
      } ],
      "status": "final",
      "code": {
        "extension": [ {
          "url": "https://www.medizininformatik-initiative.de/fhir/ext/modul-onko/StructureDefinition/mii-ex-onko-tnm-cp-praefix",
          "valueCodeableConcept": {
            "coding": [ {
              "system": "https://www.uicc.org/resources/tnm",
              "code": "c"
            } ]
          }
        } ],
        "coding": [ {
          "system": "http://snomed.info/sct",
          "version": "http://snomed.info/sct/900000000000207008/version/20250501",
          "code": "399534004",
          "display": "cN category (observable entity)"
        } ]
      },
      "subject": {
        "reference": "Patient/43d8d22e39e073fbb83f221071d60fe92e947d234ada77f7401d0eb4d230a849"
      },
      "focus": [ {
        "reference": "Condition/2b8efc01441d384050dfa3aeaf09e5387eb44563ce35e2e27b40d5d1740d7abf"
      } ],
      "effectiveDateTime": "2022-10-02",
      "valueCodeableConcept": {
        "coding": [ {
          "system": "https://www.uicc.org/resources/tnm",
          "code": "N0"
        } ]
      },
      "method": {
        "coding": [ {
          "system": "https://www.medizininformatik-initiative.de/fhir/ext/modul-onko/CodeSystem/mii-cs-onko-tnm-version",
          "code": "8"
        } ]
      }
    },
    "request": {
      "method": "PUT",
      "url": "Observation/7f3fbd8b44d4434aa716ec9de0a24b4a159ef65f6640f8960f62aae115a7c63b"
    }
  }, {
    "fullUrl": "Observation/f9d5a3ea0f53df1f40e846ba2508bb29df4030a6df6bc6f362915da89b065b38",
    "resource": {
      "resourceType": "Observation",
      "id": "f9d5a3ea0f53df1f40e846ba2508bb29df4030a6df6bc6f362915da89b065b38",
      "meta": {
        "profile": [ "https://www.medizininformatik-initiative.de/fhir/ext/modul-onko/StructureDefinition/mii-pr-onko-tnm-m-kategorie" ]
      },
      "identifier": [ {
        "system": "https://bzkf.github.io/obds-to-fhir/identifiers/tnm-m-kategorie-observation-id",
        "value": "341-c_M"
      } ],
      "status": "final",
      "code": {
        "extension": [ {
          "url": "https://www.medizininformatik-initiative.de/fhir/ext/modul-onko/StructureDefinition/mii-ex-onko-tnm-cp-praefix",
          "valueCodeableConcept": {
            "coding": [ {
              "system": "https://www.uicc.org/resources/tnm",
              "code": "c"
            } ]
          }
        } ],
        "coding": [ {
          "system": "http://snomed.info/sct",
          "version": "http://snomed.info/sct/900000000000207008/version/20250501",
          "code": "399387003",
          "display": "cM category (observable entity)"
        } ]
      },
      "subject": {
        "reference": "Patient/43d8d22e39e073fbb83f221071d60fe92e947d234ada77f7401d0eb4d230a849"
      },
      "focus": [ {
        "reference": "Condition/2b8efc01441d384050dfa3aeaf09e5387eb44563ce35e2e27b40d5d1740d7abf"
      } ],
      "effectiveDateTime": "2022-10-02",
      "valueCodeableConcept": {
        "coding": [ {
          "system": "https://www.uicc.org/resources/tnm",
          "code": "M0"
        } ]
      },
      "method": {
        "coding": [ {
          "system": "https://www.medizininformatik-initiative.de/fhir/ext/modul-onko/CodeSystem/mii-cs-onko-tnm-version",
          "code": "8"
        } ]
      }
    },
    "request": {
      "method": "PUT",
      "url": "Observation/f9d5a3ea0f53df1f40e846ba2508bb29df4030a6df6bc6f362915da89b065b38"
    }
  }, {
    "fullUrl": "Observation/fe6a955f43541db9cb89a00d47cceb243b43f6f4c44f6faf6ea7ffa168bd9887",
    "resource": {
      "resourceType": "Observation",
      "id": "fe6a955f43541db9cb89a00d47cceb243b43f6f4c44f6faf6ea7ffa168bd9887",
      "meta": {
        "profile": [ "https://www.medizininformatik-initiative.de/fhir/ext/modul-onko/StructureDefinition/mii-pr-onko-tnm-klassifikation" ]
      },
      "identifier": [ {
        "system": "https://bzkf.github.io/obds-to-fhir/identifiers/tnm-grouping-observation-id",
        "value": "341-c"
      } ],
      "status": "final",
      "code": {
        "coding": [ {
          "system": "http://snomed.info/sct",
          "version": "http://snomed.info/sct/900000000000207008/version/20250501",
          "code": "399537006",
          "display": "Clinical TNM stage grouping"
        } ]
      },
      "subject": {
        "reference": "Patient/43d8d22e39e073fbb83f221071d60fe92e947d234ada77f7401d0eb4d230a849"
      },
      "focus": [ {
        "reference": "Condition/2b8efc01441d384050dfa3aeaf09e5387eb44563ce35e2e27b40d5d1740d7abf"
      } ],
      "effectiveDateTime": "2022-10-02",
      "valueCodeableConcept": {
        "coding": [ {
          "system": "https://www.uicc.org/resources/tnm",
          "code": "0",
          "display": "Stadium 0"
        } ]
      },
      "method": {
        "coding": [ {
          "system": "https://www.medizininformatik-initiative.de/fhir/ext/modul-onko/CodeSystem/mii-cs-onko-tnm-version",
          "code": "8"
        } ]
      },
      "hasMember": [ {
        "reference": "Observation/68c220c637986d32c2dec5afbd82715bb7f5d6edf95ff2ff07c6f65b173d5d0f"
      }, {
        "reference": "Observation/7f3fbd8b44d4434aa716ec9de0a24b4a159ef65f6640f8960f62aae115a7c63b"
      }, {
        "reference": "Observation/f9d5a3ea0f53df1f40e846ba2508bb29df4030a6df6bc6f362915da89b065b38"
      } ]
    },
    "request": {
      "method": "PUT",
      "url": "Observation/fe6a955f43541db9cb89a00d47cceb243b43f6f4c44f6faf6ea7ffa168bd9887"
    }
  }, {
    "fullUrl": "Observation/25dc07599e46857b649be6f99b35f3001ca5b6acc4dfc4ae17f5391901c5f6e8",
    "resource": {
      "resourceType": "Observation",
      "id": "25dc07599e46857b649be6f99b35f3001ca5b6acc4dfc4ae17f5391901c5f6e8",
      "meta": {
        "profile": [ "https://www.medizininformatik-initiative.de/fhir/ext/modul-onko/StructureDefinition/mii-pr-onko-tnm-t-kategorie" ]
      },
      "identifier": [ {
        "system": "https://bzkf.github.io/obds-to-fhir/identifiers/tnm-t-kategorie-observation-id",
        "value": "342-p_T"
      } ],
      "status": "final",
      "code": {
        "extension": [ {
          "url": "https://www.medizininformatik-initiative.de/fhir/ext/modul-onko/StructureDefinition/mii-ex-onko-tnm-cp-praefix",
          "valueCodeableConcept": {
            "coding": [ {
              "system": "https://www.uicc.org/resources/tnm",
              "code": "p"
            } ]
          }
        } ],
        "coding": [ {
          "system": "http://snomed.info/sct",
          "version": "http://snomed.info/sct/900000000000207008/version/20250501",
          "code": "384625004",
          "display": "pT category (observable entity)"
        } ]
      },
      "subject": {
        "reference": "Patient/43d8d22e39e073fbb83f221071d60fe92e947d234ada77f7401d0eb4d230a849"
      },
      "focus": [ {
        "reference": "Condition/2b8efc01441d384050dfa3aeaf09e5387eb44563ce35e2e27b40d5d1740d7abf"
      } ],
      "effectiveDateTime": "2022-10-03",
      "valueCodeableConcept": {
        "coding": [ {
          "system": "https://www.uicc.org/resources/tnm",
          "code": "Tis"
        } ]
      },
      "method": {
        "coding": [ {
          "system": "https://www.medizininformatik-initiative.de/fhir/ext/modul-onko/CodeSystem/mii-cs-onko-tnm-version",
          "code": "8"
        } ]
      }
    },
    "request": {
      "method": "PUT",
      "url": "Observation/25dc07599e46857b649be6f99b35f3001ca5b6acc4dfc4ae17f5391901c5f6e8"
    }
  }, {
    "fullUrl": "Observation/b1da12e15a4778d0b6a64df235e6c0accbb90801a670f385ad01f70d7587aa66",
    "resource": {
      "resourceType": "Observation",
      "id": "b1da12e15a4778d0b6a64df235e6c0accbb90801a670f385ad01f70d7587aa66",
      "meta": {
        "profile": [ "https://www.medizininformatik-initiative.de/fhir/ext/modul-onko/StructureDefinition/mii-pr-onko-tnm-n-kategorie" ]
      },
      "identifier": [ {
        "system": "https://bzkf.github.io/obds-to-fhir/identifiers/tnm-n-kategorie-observation-id",
        "value": "342-p_N"
      } ],
      "status": "final",
      "code": {
        "extension": [ {
          "url": "https://www.medizininformatik-initiative.de/fhir/ext/modul-onko/StructureDefinition/mii-ex-onko-tnm-cp-praefix",
          "valueCodeableConcept": {
            "coding": [ {
              "system": "https://www.uicc.org/resources/tnm",
              "code": "c"
            } ]
          }
        } ],
        "coding": [ {
          "system": "http://snomed.info/sct",
          "version": "http://snomed.info/sct/900000000000207008/version/20250501",
          "code": "399534004",
          "display": "cN category (observable entity)"
        } ]
      },
      "subject": {
        "reference": "Patient/43d8d22e39e073fbb83f221071d60fe92e947d234ada77f7401d0eb4d230a849"
      },
      "focus": [ {
        "reference": "Condition/2b8efc01441d384050dfa3aeaf09e5387eb44563ce35e2e27b40d5d1740d7abf"
      } ],
      "effectiveDateTime": "2022-10-03",
      "valueCodeableConcept": {
        "coding": [ {
          "system": "https://www.uicc.org/resources/tnm",
          "code": "N0"
        } ]
      },
      "method": {
        "coding": [ {
          "system": "https://www.medizininformatik-initiative.de/fhir/ext/modul-onko/CodeSystem/mii-cs-onko-tnm-version",
          "code": "8"
        } ]
      }
    },
    "request": {
      "method": "PUT",
      "url": "Observation/b1da12e15a4778d0b6a64df235e6c0accbb90801a670f385ad01f70d7587aa66"
    }
  }, {
    "fullUrl": "Observation/893ab965425b52ecfe81957f1dfdb8b2a0d9d349d68c64325f05ccfe6f43d1d4",
    "resource": {
      "resourceType": "Observation",
      "id": "893ab965425b52ecfe81957f1dfdb8b2a0d9d349d68c64325f05ccfe6f43d1d4",
      "meta": {
        "profile": [ "https://www.medizininformatik-initiative.de/fhir/ext/modul-onko/StructureDefinition/mii-pr-onko-tnm-m-kategorie" ]
      },
      "identifier": [ {
        "system": "https://bzkf.github.io/obds-to-fhir/identifiers/tnm-m-kategorie-observation-id",
        "value": "342-p_M"
      } ],
      "status": "final",
      "code": {
        "extension": [ {
          "url": "https://www.medizininformatik-initiative.de/fhir/ext/modul-onko/StructureDefinition/mii-ex-onko-tnm-cp-praefix",
          "valueCodeableConcept": {
            "coding": [ {
              "system": "https://www.uicc.org/resources/tnm",
              "code": "c"
            } ]
          }
        } ],
        "coding": [ {
          "system": "http://snomed.info/sct",
          "version": "http://snomed.info/sct/900000000000207008/version/20250501",
          "code": "399387003",
          "display": "cM category (observable entity)"
        } ]
      },
      "subject": {
        "reference": "Patient/43d8d22e39e073fbb83f221071d60fe92e947d234ada77f7401d0eb4d230a849"
      },
      "focus": [ {
        "reference": "Condition/2b8efc01441d384050dfa3aeaf09e5387eb44563ce35e2e27b40d5d1740d7abf"
      } ],
      "effectiveDateTime": "2022-10-03",
      "valueCodeableConcept": {
        "coding": [ {
          "system": "https://www.uicc.org/resources/tnm",
          "code": "M0"
        } ]
      },
      "method": {
        "coding": [ {
          "system": "https://www.medizininformatik-initiative.de/fhir/ext/modul-onko/CodeSystem/mii-cs-onko-tnm-version",
          "code": "8"
        } ]
      }
    },
    "request": {
      "method": "PUT",
      "url": "Observation/893ab965425b52ecfe81957f1dfdb8b2a0d9d349d68c64325f05ccfe6f43d1d4"
    }
  }, {
    "fullUrl": "Observation/9729b853c2efba3c9383a71ffcf09aad25d3cfd7dece81d38421696cc5523ffa",
    "resource": {
      "resourceType": "Observation",
      "id": "9729b853c2efba3c9383a71ffcf09aad25d3cfd7dece81d38421696cc5523ffa",
      "meta": {
        "profile": [ "https://www.medizininformatik-initiative.de/fhir/ext/modul-onko/StructureDefinition/mii-pr-onko-tnm-klassifikation" ]
      },
      "identifier": [ {
        "system": "https://bzkf.github.io/obds-to-fhir/identifiers/tnm-grouping-observation-id",
        "value": "342-p"
      } ],
      "status": "final",
      "code": {
        "coding": [ {
          "system": "http://snomed.info/sct",
          "version": "http://snomed.info/sct/900000000000207008/version/20250501",
          "code": "399588009",
          "display": "Pathologic TNM stage grouping"
        } ]
      },
      "subject": {
        "reference": "Patient/43d8d22e39e073fbb83f221071d60fe92e947d234ada77f7401d0eb4d230a849"
      },
      "focus": [ {
        "reference": "Condition/2b8efc01441d384050dfa3aeaf09e5387eb44563ce35e2e27b40d5d1740d7abf"
      } ],
      "effectiveDateTime": "2022-10-03",
      "valueCodeableConcept": {
        "coding": [ {
          "system": "https://www.uicc.org/resources/tnm",
          "code": "0",
          "display": "Stadium 0"
        } ]
      },
      "method": {
        "coding": [ {
          "system": "https://www.medizininformatik-initiative.de/fhir/ext/modul-onko/CodeSystem/mii-cs-onko-tnm-version",
          "code": "8"
        } ]
      },
      "hasMember": [ {
        "reference": "Observation/25dc07599e46857b649be6f99b35f3001ca5b6acc4dfc4ae17f5391901c5f6e8"
      }, {
        "reference": "Observation/b1da12e15a4778d0b6a64df235e6c0accbb90801a670f385ad01f70d7587aa66"
      }, {
        "reference": "Observation/893ab965425b52ecfe81957f1dfdb8b2a0d9d349d68c64325f05ccfe6f43d1d4"
      } ]
    },
    "request": {
      "method": "PUT",
      "url": "Observation/9729b853c2efba3c9383a71ffcf09aad25d3cfd7dece81d38421696cc5523ffa"
    }
  } ]
}