{
  "resourceType": "Bundle",
  "id": "23283daf4d699cc4b3e9d01cd4ce1344cd94f9f9769dfd88da68b2b696332d48",
  "type": "transaction",
  "entry": [ {
    "fullUrl": "Patient/23283daf4d699cc4b3e9d01cd4ce1344cd94f9f9769dfd88da68b2b696332d48",
    "resource": {
      "resourceType": "Patient",
      "id": "23283daf4d699cc4b3e9d01cd4ce1344cd94f9f9769dfd88da68b2b696332d48",
      "meta": {
        "profile": [ "https://www.medizininformatik-initiative.de/fhir/core/modul-person/StructureDefinition/PatientPseudonymisiert" ]
      },
      "identifier": [ {
        "type": {
          "coding": [ {
            "system": "http://terminology.hl7.org/CodeSystem/v2-0203",
            "code": "MR",
            "display": "Medical record number"
          }, {
            "system": "http://terminology.hl7.org/CodeSystem/v3-ObservationValue",
            "code": "PSEUDED",
            "display": "pseudonymized"
          } ]
        },
        "system": "https://bzkf.github.io/obds-to-fhir/identifiers/patient-id",
        "value": "80"
      } ],
      "gender": "male",
      "birthDate": "1952-03-05",
      "address": [ {
        "type": "both",
        "postalCode": "90402",
        "_country": {
          "extension": [ {
            "url": "http://hl7.org/fhir/StructureDefinition/data-absent-reason",
            "valueCode": "unknown"
          } ]
        }
      } ]
    },
    "request": {
      "method": "PUT",
      "url": "Patient/23283daf4d699cc4b3e9d01cd4ce1344cd94f9f9769dfd88da68b2b696332d48"
    }
  }, {
    "fullUrl": "Procedure/8659f4d846974b09913924a61cb54295e498ab8d1ea36861883c13c3b291c6c1",
    "resource": {
      "resourceType": "Procedure",
      "id": "8659f4d846974b09913924a61cb54295e498ab8d1ea36861883c13c3b291c6c1",
      "meta": {
        "profile": [ "https://www.medizininformatik-initiative.de/fhir/ext/modul-onko/StructureDefinition/mii-pr-onko-strahlentherapie" ]
      },
      "extension": [ {
        "url": "https://www.medizininformatik-initiative.de/fhir/ext/modul-onko/StructureDefinition/mii-ex-onko-strahlentherapie-intention",
        "valueCodeableConcept": {
          "coding": [ {
            "system": "https://www.medizininformatik-initiative.de/fhir/ext/modul-onko/CodeSystem/mii-cs-onko-intention",
            "code": "P"
          } ]
        }
      }, {
        "url": "https://www.medizininformatik-initiative.de/fhir/ext/modul-onko/StructureDefinition/mii-ex-onko-strahlentherapie-bestrahlung",
        "extension": [ {
          "url": "Applikationsart",
          "valueCodeableConcept": {
            "coding": [ {
              "system": "https://www.medizininformatik-initiative.de/fhir/ext/modul-onko/CodeSystem/mii-cs-onko-strahlentherapie-applikationsart",
              "code": "P-ST"
            } ]
          }
        }, {
          "url": "Strahlenart",
          "valueCodeableConcept": {
            "coding": [ {
              "system": "https://www.medizininformatik-initiative.de/fhir/ext/modul-onko/CodeSystem/mii-cs-onko-strahlentherapie-strahlenart",
              "code": "UH"
            } ]
          }
        }, {
          "url": "Zielgebiet",
          "valueCodeableConcept": {
            "coding": [ {
              "system": "https://www.medizininformatik-initiative.de/fhir/ext/modul-onko/CodeSystem/mii-cs-onko-strahlentherapie-zielgebiet",
              "code": "3.4"
            } ]
          }
        } ]
      } ],
      "identifier": [ {
        "system": "https://bzkf.github.io/obds-to-fhir/identifiers/strahlentherapie-procedure-id",
        "value": "80_1_RAD_1"
      } ],
      "status": "in-progress",
      "category": {
        "coding": [ {
          "system": "http://snomed.info/sct",
          "code": "277132007",
          "display": "Therapeutic procedure"
        } ]
      },
      "code": {
        "coding": [ {
          "system": "http://fhir.de/CodeSystem/bfarm/ops",
          "_code": {
            "extension": [ {
              "url": "http://hl7.org/fhir/StructureDefinition/data-absent-reason",
              "valueCode": "unknown"
            } ]
          }
        } ]
      },
      "subject": {
        "reference": "Patient/23283daf4d699cc4b3e9d01cd4ce1344cd94f9f9769dfd88da68b2b696332d48"
      },
      "performedPeriod": {
        "_start": {
          "extension": [ {
            "url": "http://hl7.org/fhir/StructureDefinition/data-absent-reason",
            "valueCode": "unknown"
          } ]
        }
      }
    },
    "request": {
      "method": "PUT",
      "url": "Procedure/8659f4d846974b09913924a61cb54295e498ab8d1ea36861883c13c3b291c6c1"
    }
  }, {
    "fullUrl": "Procedure/177d21a6e24969e5a639921f0688163978547b64fd65195940969b759984b142",
    "resource": {
      "resourceType": "Procedure",
      "id": "177d21a6e24969e5a639921f0688163978547b64fd65195940969b759984b142",
      "meta": {
        "profile": [ "https://www.medizininformatik-initiative.de/fhir/ext/modul-onko/StructureDefinition/mii-pr-onko-systemische-therapie" ]
      },
      "extension": [ {
        "url": "https://www.medizininformatik-initiative.de/fhir/ext/modul-onko/StructureDefinition/mii-ex-onko-systemische-therapie-intention",
        "valueCodeableConcept": {
          "coding": [ {
            "system": "https://www.medizininformatik-initiative.de/fhir/ext/modul-onko/CodeSystem/mii-cs-onko-intention",
            "code": "K"
          } ]
        }
      } ],
      "identifier": [ {
        "system": "https://bzkf.github.io/obds-to-fhir/identifiers/systemische-therapie-procedure-id",
        "value": "80_1_IN_1"
      } ],
      "status": "in-progress",
      "category": {
        "coding": [ {
          "system": "http://snomed.info/sct",
          "code": "18629005"
        } ]
      },
      "code": {
        "coding": [ {
          "system": "http://fhir.de/CodeSystem/bfarm/ops",
          "code": "6-00"
        }, {
          "system": "https://www.medizininformatik-initiative.de/fhir/ext/modul-onko/CodeSystem/mii-cs-onko-therapie-typ",
          "code": "HO"
        } ]
      },
      "subject": {
        "reference": "Patient/23283daf4d699cc4b3e9d01cd4ce1344cd94f9f9769dfd88da68b2b696332d48"
      },
      "performedPeriod": {
        "start": "2020-05-10"
      }
    },
    "request": {
      "method": "PUT",
      "url": "Procedure/177d21a6e24969e5a639921f0688163978547b64fd65195940969b759984b142"
    }
  }, {
    "fullUrl": "MedicationStatement/5e9ddff7fddf855fe13360dc82e163caf3b4fe1c82bef38b6fbada420bc06cbb",
    "resource": {
      "resourceType": "MedicationStatement",
      "id": "5e9ddff7fddf855fe13360dc82e163caf3b4fe1c82bef38b6fbada420bc06cbb",
      "meta": {
        "profile": [ "https://www.medizininformatik-initiative.de/fhir/core/modul-medikation/StructureDefinition/MedicationStatement" ]
      },
      "identifier": [ {
        "system": "https://bzkf.github.io/obds-to-fhir/identifiers/systemische-therapie-medication-statement-id",
        "value": "80_1_IN_1_Buserelin_b426"
      } ],
      "partOf": [ {
        "reference": "Procedure/177d21a6e24969e5a639921f0688163978547b64fd65195940969b759984b142"
      } ],
      "status": "active",
      "medicationCodeableConcept": {
        "text": "Buserelin"
      },
      "subject": {
        "reference": "Patient/23283daf4d699cc4b3e9d01cd4ce1344cd94f9f9769dfd88da68b2b696332d48"
      },
      "effectivePeriod": {
        "start": "2020-05-10"
      }
    },
    "request": {
      "method": "PUT",
      "url": "MedicationStatement/5e9ddff7fddf855fe13360dc82e163caf3b4fe1c82bef38b6fbada420bc06cbb"
    }
  }, {
    "fullUrl": "Procedure/01fe10e7214221155d118ef5991a5666bad77fad0c85fa0f60678057e0ae1fb9",
    "resource": {
      "resourceType": "Procedure",
      "id": "01fe10e7214221155d118ef5991a5666bad77fad0c85fa0f60678057e0ae1fb9",
      "meta": {
        "profile": [ "https://www.medizininformatik-initiative.de/fhir/ext/modul-onko/StructureDefinition/mii-pr-onko-operation" ]
      },
      "extension": [ {
        "url": "https://www.medizininformatik-initiative.de/fhir/ext/modul-onko/StructureDefinition/mii-ex-onko-operation-intention",
        "valueCodeableConcept": {
          "coding": [ {
            "system": "https://www.medizininformatik-initiative.de/fhir/ext/modul-onko/CodeSystem/mii-cs-onko-intention",
            "code": "K"
          } ]
        }
      } ],
      "identifier": [ {
        "system": "https://bzkf.github.io/obds-to-fhir/identifiers/operation-procedure-id",
        "value": "1475-604.12"
      } ],
      "status": "completed",
      "category": {
        "coding": [ {
          "system": "http://snomed.info/sct",
          "code": "387713003",
          "display": "Surgical procedure"
        } ]
      },
      "code": {
        "coding": [ {
          "system": "http://fhir.de/CodeSystem/bfarm/ops",
          "version": "2022",
          "code": "5-604.12"
        } ]
      },
      "subject": {
        "reference": "Patient/23283daf4d699cc4b3e9d01cd4ce1344cd94f9f9769dfd88da68b2b696332d48"
      },
      "performedDateTime": "2020-06-01",
      "reasonReference": [ {
        "reference": "Condition/864086c778055cfdcf52915c303af7bfa4941ae6f56fb931849319046b09108d"
      } ],
      "outcome": {
        "coding": [ {
          "system": "https://www.medizininformatik-initiative.de/fhir/ext/modul-onko/CodeSystem/mii-cs-onko-residualstatus",
          "code": "R0"
        } ]
      }
    },
    "request": {
      "method": "PUT",
      "url": "Procedure/01fe10e7214221155d118ef5991a5666bad77fad0c85fa0f60678057e0ae1fb9"
    }
  }, {
    "fullUrl": "Observation/a042c87268385397f8c5fcb146773ffdaebb26e5accbb5a16823e0c78be0c63f",
    "resource": {
      "resourceType": "Observation",
      "id": "a042c87268385397f8c5fcb146773ffdaebb26e5accbb5a16823e0c78be0c63f",
      "identifier": [ {
        "system": "https://bzkf.github.io/obds-to-fhir/identifiers/residualstatus-observation-id",
        "value": "147"
      } ],
      "status": "final",
      "code": {
        "coding": [ {
          "system": "http://loinc.org",
          "code": "84892-9"
        } ]
      },
      "subject": {
        "reference": "Patient/23283daf4d699cc4b3e9d01cd4ce1344cd94f9f9769dfd88da68b2b696332d48"
      },
      "focus": [ {
        "reference": "Condition/864086c778055cfdcf52915c303af7bfa4941ae6f56fb931849319046b09108d"
      } ],
      "effectiveDateTime": "2020-06-01",
      "valueCodeableConcept": {
        "coding": [ {
          "system": "https://www.medizininformatik-initiative.de/fhir/ext/modul-onko/CodeSystem/mii-cs-onko-residualstatus",
          "code": "R0"
        } ]
      }
    },
    "request": {
      "method": "PUT",
      "url": "Observation/a042c87268385397f8c5fcb146773ffdaebb26e5accbb5a16823e0c78be0c63f"
    }
  }, {
    "fullUrl": "Condition/864086c778055cfdcf52915c303af7bfa4941ae6f56fb931849319046b09108d",
    "resource": {
      "resourceType": "Condition",
      "id": "864086c778055cfdcf52915c303af7bfa4941ae6f56fb931849319046b09108d",
      "meta": {
        "profile": [ "https://www.medizininformatik-initiative.de/fhir/ext/modul-onko/StructureDefinition/mii-pr-onko-diagnose-primaertumor" ]
      },
      "extension": [ {
        "url": "https://www.medizininformatik-initiative.de/fhir/ext/modul-onko/StructureDefinition/mii-ex-onko-histology-morphology-behavior-icdo3",
        "valueCodeableConcept": {
          "coding": [ {
            "system": "http://terminology.hl7.org/CodeSystem/icd-o-3",
            "version": "31",
            "code": "8140/3"
          } ]
        }
      }, {
        "url": "http://hl7.org/fhir/StructureDefinition/condition-assertedDate",
        "valueDateTime": "2020-05-10"
      } ],
      "identifier": [ {
        "system": "https://bzkf.github.io/obds-to-fhir/identifiers/primaerdiagnose-id",
        "value": "801"
      } ],
      "verificationStatus": {
        "coding": [ {
          "system": "http://terminology.hl7.org/CodeSystem/condition-ver-status",
          "code": "confirmed"
        }, {
          "system": "https://www.medizininformatik-initiative.de/fhir/ext/modul-onko/CodeSystem/mii-cs-onko-primaertumor-diagnosesicherung",
          "code": "7"
        } ]
      },
      "code": {
        "coding": [ {
          "system": "http://fhir.de/CodeSystem/bfarm/icd-10-gm",
          "version": "2020",
          "code": "C61"
        } ]
      },
      "bodySite": [ {
        "coding": [ {
          "system": "http://terminology.hl7.org/CodeSystem/icd-o-3",
          "version": "33",
          "code": "C61.9"
        } ]
      }, {
        "coding": [ {
          "system": "https://www.medizininformatik-initiative.de/fhir/ext/modul-onko/CodeSystem/mii-cs-onko-seitenlokalisation",
          "code": "T"
        } ]
      } ],
      "subject": {
        "reference": "Patient/23283daf4d699cc4b3e9d01cd4ce1344cd94f9f9769dfd88da68b2b696332d48"
      },
      "recordedDate": "2024-02-16"
    },
    "request": {
      "method": "PUT",
      "url": "Condition/864086c778055cfdcf52915c303af7bfa4941ae6f56fb931849319046b09108d"
    }
  }, {
    "fullUrl": "Observation/33ffb713694408e707d2cdcc4ce660a637c11a9470ca973e8a62f4354d950d9c",
    "resource": {
      "resourceType": "Observation",
      "id": "33ffb713694408e707d2cdcc4ce660a637c11a9470ca973e8a62f4354d950d9c",
      "meta": {
        "profile": [ "https://www.medizininformatik-initiative.de/fhir/ext/modul-onko/StructureDefinition/mii-pr-onko-allgemeiner-leistungszustand-ecog" ]
      },
      "identifier": [ {
        "system": "https://bzkf.github.io/obds-to-fhir/identifiers/allgemeiner-leistungszustand-ecog-id",
        "value": "ECOG-DIA_80106"
      } ],
      "status": "final",
      "code": {
        "coding": [ {
          "system": "http://snomed.info/sct",
          "code": "423740007"
        } ]
      },
      "subject": {
        "reference": "Patient/23283daf4d699cc4b3e9d01cd4ce1344cd94f9f9769dfd88da68b2b696332d48"
      },
      "focus": [ {
        "reference": "Condition/864086c778055cfdcf52915c303af7bfa4941ae6f56fb931849319046b09108d"
      } ],
      "effectiveDateTime": "2020-05-10",
      "valueCodeableConcept": {
        "coding": [ {
          "system": "https://www.medizininformatik-initiative.de/fhir/ext/modul-onko/CodeSystem/mii-cs-onko-allgemeiner-leistungszustand-ecog",
          "code": "0",
          "display": "Normale, uneingeschränkte Aktivität wie vor der Erkrankung (90 - 100 % nach Karnofsky)"
        } ]
      }
    },
    "request": {
      "method": "PUT",
      "url": "Observation/33ffb713694408e707d2cdcc4ce660a637c11a9470ca973e8a62f4354d950d9c"
    }
  } ]
}