{
  "resourceType": "Bundle",
  "id": "a02e16474896f1d528cac71f2c9b4c45ac3c9028e3a53fb414a1f7882991ee07",
  "type": "transaction",
  "entry": [ {
    "fullUrl": "Patient/a02e16474896f1d528cac71f2c9b4c45ac3c9028e3a53fb414a1f7882991ee07",
    "resource": {
      "resourceType": "Patient",
      "id": "a02e16474896f1d528cac71f2c9b4c45ac3c9028e3a53fb414a1f7882991ee07",
      "meta": {
        "profile": [ "https://www.medizininformatik-initiative.de/fhir/core/modul-person/StructureDefinition/PatientPseudonymisiert" ]
      },
      "identifier": [ {
        "type": {
          "coding": [ {
            "system": "http://terminology.hl7.org/CodeSystem/v2-0203",
            "code": "MR",
            "display": "Medical record number"
          }, {
            "system": "http://terminology.hl7.org/CodeSystem/v3-ObservationValue",
            "code": "PSEUDED",
            "display": "pseudonymized"
          } ]
        },
        "system": "https://bzkf.github.io/obds-to-fhir/identifiers/patient-id",
        "value": "10"
      } ],
      "gender": "female",
      "birthDate": "1950-05-01",
      "deceasedDateTime": "2022-08-01",
      "address": [ {
        "type": "both",
        "postalCode": "12345",
        "country": "DE"
      } ]
    },
    "request": {
      "method": "PUT",
      "url": "Patient/a02e16474896f1d528cac71f2c9b4c45ac3c9028e3a53fb414a1f7882991ee07"
    }
  }, {
    "fullUrl": "Condition/ac3a7f7cb463b585fefa6c8135a98c84c3f1a025caf269a122b78de52545d0e8",
    "resource": {
      "resourceType": "Condition",
      "id": "ac3a7f7cb463b585fefa6c8135a98c84c3f1a025caf269a122b78de52545d0e8",
      "meta": {
        "profile": [ "https://www.medizininformatik-initiative.de/fhir/ext/modul-onko/StructureDefinition/mii-pr-onko-diagnose-primaertumor" ]
      },
      "extension": [ {
        "url": "https://www.medizininformatik-initiative.de/fhir/ext/modul-onko/StructureDefinition/mii-ex-onko-histology-morphology-behavior-icdo3",
        "valueCodeableConcept": {
          "coding": [ {
            "system": "http://terminology.hl7.org/CodeSystem/icd-o-3",
            "version": "33",
            "code": "8010/3"
          } ],
          "text": "Karzinom o.n.A."
        }
      }, {
        "url": "http://hl7.org/fhir/StructureDefinition/condition-assertedDate",
        "valueDateTime": "2020-03-01"
      } ],
      "identifier": [ {
        "system": "https://bzkf.github.io/obds-to-fhir/identifiers/primaerdiagnose-id",
        "value": "10-101"
      } ],
      "verificationStatus": {
        "coding": [ {
          "system": "http://terminology.hl7.org/CodeSystem/condition-ver-status",
          "code": "confirmed"
        }, {
          "system": "https://www.medizininformatik-initiative.de/fhir/ext/modul-onko/CodeSystem/mii-cs-onko-primaertumor-diagnosesicherung",
          "code": "7"
        } ]
      },
      "code": {
        "coding": [ {
          "system": "http://fhir.de/CodeSystem/bfarm/icd-10-gm",
          "version": "2020",
          "code": "C50.9"
        } ]
      },
      "bodySite": [ {
        "coding": [ {
          "system": "http://terminology.hl7.org/CodeSystem/icd-o-3",
          "version": "33",
          "code": "C50.9"
        } ],
        "text": "rechte Brust"
      }, {
        "coding": [ {
          "system": "https://www.medizininformatik-initiative.de/fhir/ext/modul-onko/CodeSystem/mii-cs-onko-seitenlokalisation",
          "code": "R"
        }, {
          "system": "http://snomed.info/sct",
          "version": "http://snomed.info/sct/900000000000207008/version/20250501",
          "code": "24028007",
          "display": "Right (qualifier value)"
        } ]
      } ],
      "subject": {
        "reference": "Patient/a02e16474896f1d528cac71f2c9b4c45ac3c9028e3a53fb414a1f7882991ee07"
      },
      "recordedDate": "2024-09-19",
      "evidence": [ {
        "detail": [ {
          "reference": "List/483f7b24cb55c6ac1fb6e384e77182e488eab7ee9c8b7c9200350db806a0b0bb"
        } ]
      } ]
    },
    "request": {
      "method": "PUT",
      "url": "Condition/ac3a7f7cb463b585fefa6c8135a98c84c3f1a025caf269a122b78de52545d0e8"
    }
  }, {
    "fullUrl": "Procedure/d7a6e92bb5ff8306601e98c5517f1cf7cd632ef3a9ef2d9ec4f2d0209b3cde73",
    "resource": {
      "resourceType": "Procedure",
      "id": "d7a6e92bb5ff8306601e98c5517f1cf7cd632ef3a9ef2d9ec4f2d0209b3cde73",
      "meta": {
        "profile": [ "https://www.medizininformatik-initiative.de/fhir/ext/modul-onko/StructureDefinition/mii-pr-onko-operation" ]
      },
      "extension": [ {
        "url": "https://www.medizininformatik-initiative.de/fhir/ext/modul-onko/StructureDefinition/mii-ex-onko-operation-intention",
        "valueCodeableConcept": {
          "coding": [ {
            "system": "https://www.medizininformatik-initiative.de/fhir/ext/modul-onko/CodeSystem/mii-cs-onko-intention",
            "code": "K"
          } ]
        }
      } ],
      "identifier": [ {
        "system": "https://bzkf.github.io/obds-to-fhir/identifiers/operation-procedure-id",
        "value": "301-5-401-1"
      } ],
      "status": "completed",
      "category": {
        "coding": [ {
          "system": "http://snomed.info/sct",
          "version": "http://snomed.info/sct/900000000000207008/version/20250501",
          "code": "387713003",
          "display": "Surgical procedure"
        } ]
      },
      "code": {
        "coding": [ {
          "system": "http://fhir.de/CodeSystem/bfarm/ops",
          "version": "2020",
          "code": "5-401.1"
        } ]
      },
      "subject": {
        "reference": "Patient/a02e16474896f1d528cac71f2c9b4c45ac3c9028e3a53fb414a1f7882991ee07"
      },
      "performedDateTime": "2020-03-05",
      "reasonReference": [ {
        "reference": "Condition/ac3a7f7cb463b585fefa6c8135a98c84c3f1a025caf269a122b78de52545d0e8"
      } ],
      "outcome": {
        "coding": [ {
          "system": "https://www.medizininformatik-initiative.de/fhir/ext/modul-onko/CodeSystem/mii-cs-onko-residualstatus",
          "code": "R0"
        } ]
      }
    },
    "request": {
      "method": "PUT",
      "url": "Procedure/d7a6e92bb5ff8306601e98c5517f1cf7cd632ef3a9ef2d9ec4f2d0209b3cde73"
    }
  }, {
    "fullUrl": "Procedure/ccd6a5395c9e15f4132dee7ca035342fc3da93b3b9737b22672d868892e1b783",
    "resource": {
      "resourceType": "Procedure",
      "id": "ccd6a5395c9e15f4132dee7ca035342fc3da93b3b9737b22672d868892e1b783",
      "meta": {
        "profile": [ "https://www.medizininformatik-initiative.de/fhir/ext/modul-onko/StructureDefinition/mii-pr-onko-operation" ]
      },
      "extension": [ {
        "url": "https://www.medizininformatik-initiative.de/fhir/ext/modul-onko/StructureDefinition/mii-ex-onko-operation-intention",
        "valueCodeableConcept": {
          "coding": [ {
            "system": "https://www.medizininformatik-initiative.de/fhir/ext/modul-onko/CodeSystem/mii-cs-onko-intention",
            "code": "K"
          } ]
        }
      } ],
      "identifier": [ {
        "system": "https://bzkf.github.io/obds-to-fhir/identifiers/operation-procedure-id",
        "value": "301-5-870"
      } ],
      "status": "completed",
      "category": {
        "coding": [ {
          "system": "http://snomed.info/sct",
          "version": "http://snomed.info/sct/900000000000207008/version/20250501",
          "code": "387713003",
          "display": "Surgical procedure"
        } ]
      },
      "code": {
        "coding": [ {
          "system": "http://fhir.de/CodeSystem/bfarm/ops",
          "version": "2020",
          "code": "5-870"
        } ]
      },
      "subject": {
        "reference": "Patient/a02e16474896f1d528cac71f2c9b4c45ac3c9028e3a53fb414a1f7882991ee07"
      },
      "performedDateTime": "2020-03-05",
      "reasonReference": [ {
        "reference": "Condition/ac3a7f7cb463b585fefa6c8135a98c84c3f1a025caf269a122b78de52545d0e8"
      } ],
      "outcome": {
        "coding": [ {
          "system": "https://www.medizininformatik-initiative.de/fhir/ext/modul-onko/CodeSystem/mii-cs-onko-residualstatus",
          "code": "R0"
        } ]
      }
    },
    "request": {
      "method": "PUT",
      "url": "Procedure/ccd6a5395c9e15f4132dee7ca035342fc3da93b3b9737b22672d868892e1b783"
    }
  }, {
    "fullUrl": "Observation/daa3a29e56fbbdcdf2d899040e8a515eb5ae62414b7e1478d79d0b499469bbcc",
    "resource": {
      "resourceType": "Observation",
      "id": "daa3a29e56fbbdcdf2d899040e8a515eb5ae62414b7e1478d79d0b499469bbcc",
      "identifier": [ {
        "system": "https://bzkf.github.io/obds-to-fhir/identifiers/residualstatus-observation-id",
        "value": "301"
      } ],
      "status": "final",
      "code": {
        "coding": [ {
          "system": "http://loinc.org",
          "version": "2.80",
          "code": "84892-9",
          "display": "Residual tumor classification [Type] in Cancer specimen"
        } ]
      },
      "subject": {
        "reference": "Patient/a02e16474896f1d528cac71f2c9b4c45ac3c9028e3a53fb414a1f7882991ee07"
      },
      "focus": [ {
        "reference": "Condition/ac3a7f7cb463b585fefa6c8135a98c84c3f1a025caf269a122b78de52545d0e8"
      } ],
      "effectiveDateTime": "2020-03-05",
      "valueCodeableConcept": {
        "coding": [ {
          "system": "https://www.medizininformatik-initiative.de/fhir/ext/modul-onko/CodeSystem/mii-cs-onko-residualstatus",
          "code": "R2"
        } ]
      }
    },
    "request": {
      "method": "PUT",
      "url": "Observation/daa3a29e56fbbdcdf2d899040e8a515eb5ae62414b7e1478d79d0b499469bbcc"
    }
  }, {
    "fullUrl": "Specimen/ae7c48028dc89cdd5b4accd5e83a6fe8db4f68d40f42b7494889f1844f49079b",
    "resource": {
      "resourceType": "Specimen",
      "id": "ae7c48028dc89cdd5b4accd5e83a6fe8db4f68d40f42b7494889f1844f49079b",
      "meta": {
        "profile": [ "https://www.medizininformatik-initiative.de/fhir/ext/modul-onko/StructureDefinition/mii-pr-onko-specimen" ]
      },
      "identifier": [ {
        "system": "https://bzkf.github.io/obds-to-fhir/identifiers/specimen-id",
        "value": "522"
      } ],
      "accessionIdentifier": {
        "value": "X/123456/1"
      },
      "subject": {
        "reference": "Patient/a02e16474896f1d528cac71f2c9b4c45ac3c9028e3a53fb414a1f7882991ee07"
      },
      "collection": {
        "collectedDateTime": "2020-03-05"
      }
    },
    "request": {
      "method": "PUT",
      "url": "Specimen/ae7c48028dc89cdd5b4accd5e83a6fe8db4f68d40f42b7494889f1844f49079b"
    }
  }, {
    "fullUrl": "Observation/1bc1624176f2c3a1b8fe8fafc630f7cc8dfda877b993e9c422d7e710b53d965e",
    "resource": {
      "resourceType": "Observation",
      "id": "1bc1624176f2c3a1b8fe8fafc630f7cc8dfda877b993e9c422d7e710b53d965e",
      "meta": {
        "profile": [ "https://www.medizininformatik-initiative.de/fhir/ext/modul-onko/StructureDefinition/mii-pr-onko-histologie-icdo3" ]
      },
      "identifier": [ {
        "system": "https://bzkf.github.io/obds-to-fhir/identifiers/observation-histologie-id",
        "value": "522-ICDO3-8010-3"
      } ],
      "status": "final",
      "code": {
        "coding": [ {
          "system": "http://loinc.org",
          "version": "2.80",
          "code": "59847-4",
          "display": "Histology and Behavior ICD-O-3 Cancer"
        } ]
      },
      "subject": {
        "reference": "Patient/a02e16474896f1d528cac71f2c9b4c45ac3c9028e3a53fb414a1f7882991ee07"
      },
      "focus": [ {
        "reference": "Condition/ac3a7f7cb463b585fefa6c8135a98c84c3f1a025caf269a122b78de52545d0e8"
      } ],
      "effectiveDateTime": "2020-03-05",
      "valueCodeableConcept": {
        "coding": [ {
          "system": "http://terminology.hl7.org/CodeSystem/icd-o-3",
          "version": "33",
          "code": "8010/3"
        } ],
        "text": "Karzinom o.n.A."
      },
      "specimen": {
        "reference": "Specimen/ae7c48028dc89cdd5b4accd5e83a6fe8db4f68d40f42b7494889f1844f49079b"
      }
    },
    "request": {
      "method": "PUT",
      "url": "Observation/1bc1624176f2c3a1b8fe8fafc630f7cc8dfda877b993e9c422d7e710b53d965e"
    }
  }, {
    "fullUrl": "Observation/c0a864d2cc08c699d2880b9b05980317e5a17da27011651f7034c59057e62572",
    "resource": {
      "resourceType": "Observation",
      "id": "c0a864d2cc08c699d2880b9b05980317e5a17da27011651f7034c59057e62572",
      "meta": {
        "profile": [ "https://www.medizininformatik-initiative.de/fhir/ext/modul-onko/StructureDefinition/mii-pr-onko-grading" ]
      },
      "identifier": [ {
        "system": "https://bzkf.github.io/obds-to-fhir/identifiers/grading-observation-id",
        "value": "522-grading"
      } ],
      "status": "final",
      "category": [ {
        "coding": [ {
          "system": "http://terminology.hl7.org/CodeSystem/observation-category",
          "code": "laboratory"
        } ]
      } ],
      "code": {
        "coding": [ {
          "system": "http://loinc.org",
          "version": "2.80",
          "code": "33732-9",
          "display": "Histology grade [Identifier] in Cancer specimen"
        }, {
          "system": "http://snomed.info/sct",
          "version": "http://snomed.info/sct/900000000000207008/version/20250501",
          "code": "371469007",
          "display": "Histologic grade of neoplasm (observable entity)"
        } ]
      },
      "subject": {
        "reference": "Patient/a02e16474896f1d528cac71f2c9b4c45ac3c9028e3a53fb414a1f7882991ee07"
      },
      "focus": [ {
        "reference": "Condition/ac3a7f7cb463b585fefa6c8135a98c84c3f1a025caf269a122b78de52545d0e8"
      } ],
      "effectiveDateTime": "2020-03-05",
      "valueCodeableConcept": {
        "coding": [ {
          "system": "https://www.medizininformatik-initiative.de/fhir/ext/modul-onko/CodeSystem/mii-cs-onko-grading",
          "code": "2"
        } ]
      },
      "specimen": {
        "reference": "Specimen/ae7c48028dc89cdd5b4accd5e83a6fe8db4f68d40f42b7494889f1844f49079b"
      }
    },
    "request": {
      "method": "PUT",
      "url": "Observation/c0a864d2cc08c699d2880b9b05980317e5a17da27011651f7034c59057e62572"
    }
  }, {
    "fullUrl": "Observation/98b11f5a7016bbf71eafef1daf59c7a1184527b57509338a6d1c2bb8d457e86c",
    "resource": {
      "resourceType": "Observation",
      "id": "98b11f5a7016bbf71eafef1daf59c7a1184527b57509338a6d1c2bb8d457e86c",
      "meta": {
        "profile": [ "https://www.medizininformatik-initiative.de/fhir/ext/modul-onko/StructureDefinition/mii-pr-onko-anzahl-befallene-lymphknoten" ]
      },
      "identifier": [ {
        "system": "https://bzkf.github.io/obds-to-fhir/identifiers/observation-histologie-id",
        "value": "522-befallen"
      } ],
      "status": "final",
      "category": [ {
        "coding": [ {
          "system": "http://terminology.hl7.org/CodeSystem/observation-category",
          "code": "laboratory"
        } ]
      } ],
      "code": {
        "coding": [ {
          "system": "http://loinc.org",
          "version": "2.80",
          "code": "21893-3"
        }, {
          "system": "http://snomed.info/sct",
          "version": "http://snomed.info/sct/900000000000207008/version/20250501",
          "code": "443527007"
        } ]
      },
      "subject": {
        "reference": "Patient/a02e16474896f1d528cac71f2c9b4c45ac3c9028e3a53fb414a1f7882991ee07"
      },
      "focus": [ {
        "reference": "Condition/ac3a7f7cb463b585fefa6c8135a98c84c3f1a025caf269a122b78de52545d0e8"
      } ],
      "effectiveDateTime": "2020-03-05",
      "valueQuantity": {
        "value": 2,
        "unit": "#",
        "system": "http://unitsofmeasure.org",
        "code": "1"
      },
      "specimen": {
        "reference": "Specimen/ae7c48028dc89cdd5b4accd5e83a6fe8db4f68d40f42b7494889f1844f49079b"
      }
    },
    "request": {
      "method": "PUT",
      "url": "Observation/98b11f5a7016bbf71eafef1daf59c7a1184527b57509338a6d1c2bb8d457e86c"
    }
  }, {
    "fullUrl": "Observation/131c3dc0badc213d4be1a3c6e63d02303887545e4f666391b474a227c1994e02",
    "resource": {
      "resourceType": "Observation",
      "id": "131c3dc0badc213d4be1a3c6e63d02303887545e4f666391b474a227c1994e02",
      "meta": {
        "profile": [ "https://www.medizininformatik-initiative.de/fhir/ext/modul-onko/StructureDefinition/mii-pr-onko-anzahl-untersuchte-lymphknoten" ]
      },
      "identifier": [ {
        "system": "https://bzkf.github.io/obds-to-fhir/identifiers/observation-histologie-id",
        "value": "522-untersucht"
      } ],
      "status": "final",
      "category": [ {
        "coding": [ {
          "system": "http://terminology.hl7.org/CodeSystem/observation-category",
          "code": "laboratory"
        } ]
      } ],
      "code": {
        "coding": [ {
          "system": "http://loinc.org",
          "version": "2.80",
          "code": "21894-1"
        }, {
          "system": "http://snomed.info/sct",
          "version": "http://snomed.info/sct/900000000000207008/version/20250501",
          "code": "444025001"
        } ]
      },
      "subject": {
        "reference": "Patient/a02e16474896f1d528cac71f2c9b4c45ac3c9028e3a53fb414a1f7882991ee07"
      },
      "focus": [ {
        "reference": "Condition/ac3a7f7cb463b585fefa6c8135a98c84c3f1a025caf269a122b78de52545d0e8"
      } ],
      "effectiveDateTime": "2020-03-05",
      "valueQuantity": {
        "value": 10,
        "unit": "#",
        "system": "http://unitsofmeasure.org",
        "code": "1"
      },
      "specimen": {
        "reference": "Specimen/ae7c48028dc89cdd5b4accd5e83a6fe8db4f68d40f42b7494889f1844f49079b"
      }
    },
    "request": {
      "method": "PUT",
      "url": "Observation/131c3dc0badc213d4be1a3c6e63d02303887545e4f666391b474a227c1994e02"
    }
  }, {
    "fullUrl": "Observation/ff92663d1cb0729841690061fc1e762e2d20de7b75da8680c918e9ed44f73c2e",
    "resource": {
      "resourceType": "Observation",
      "id": "ff92663d1cb0729841690061fc1e762e2d20de7b75da8680c918e9ed44f73c2e",
      "meta": {
        "profile": [ "https://www.medizininformatik-initiative.de/fhir/ext/modul-onko/StructureDefinition/mii-pr-onko-anzahl-befallene-sentinel-lymphknoten" ]
      },
      "identifier": [ {
        "system": "https://bzkf.github.io/obds-to-fhir/identifiers/observation-histologie-id",
        "value": "522-befallen-sentinel"
      } ],
      "status": "final",
      "category": [ {
        "coding": [ {
          "system": "http://terminology.hl7.org/CodeSystem/observation-category",
          "code": "laboratory"
        } ]
      } ],
      "code": {
        "coding": [ {
          "system": "http://loinc.org",
          "version": "2.80",
          "code": "92832-5"
        }, {
          "system": "http://snomed.info/sct",
          "version": "http://snomed.info/sct/900000000000207008/version/20250501",
          "code": "1264491009"
        } ]
      },
      "subject": {
        "reference": "Patient/a02e16474896f1d528cac71f2c9b4c45ac3c9028e3a53fb414a1f7882991ee07"
      },
      "focus": [ {
        "reference": "Condition/ac3a7f7cb463b585fefa6c8135a98c84c3f1a025caf269a122b78de52545d0e8"
      } ],
      "effectiveDateTime": "2020-03-05",
      "valueQuantity": {
        "value": 1,
        "unit": "#",
        "system": "http://unitsofmeasure.org",
        "code": "1"
      },
      "specimen": {
        "reference": "Specimen/ae7c48028dc89cdd5b4accd5e83a6fe8db4f68d40f42b7494889f1844f49079b"
      }
    },
    "request": {
      "method": "PUT",
      "url": "Observation/ff92663d1cb0729841690061fc1e762e2d20de7b75da8680c918e9ed44f73c2e"
    }
  }, {
    "fullUrl": "Observation/cb5282291d1dd05585077e0335cd2bc9b1b5fc655352838523781602ae95a2b6",
    "resource": {
      "resourceType": "Observation",
      "id": "cb5282291d1dd05585077e0335cd2bc9b1b5fc655352838523781602ae95a2b6",
      "meta": {
        "profile": [ "https://www.medizininformatik-initiative.de/fhir/ext/modul-onko/StructureDefinition/mii-pr-onko-anzahl-untersuchte-sentinel-lymphknoten" ]
      },
      "identifier": [ {
        "system": "https://bzkf.github.io/obds-to-fhir/identifiers/observation-histologie-id",
        "value": "522-untersucht-sentinel"
      } ],
      "status": "final",
      "category": [ {
        "coding": [ {
          "system": "http://terminology.hl7.org/CodeSystem/observation-category",
          "code": "laboratory"
        } ]
      } ],
      "code": {
        "coding": [ {
          "system": "http://loinc.org",
          "version": "2.80",
          "code": "85347-3"
        }, {
          "system": "http://snomed.info/sct",
          "version": "http://snomed.info/sct/900000000000207008/version/20250501",
          "code": "444411008"
        } ]
      },
      "subject": {
        "reference": "Patient/a02e16474896f1d528cac71f2c9b4c45ac3c9028e3a53fb414a1f7882991ee07"
      },
      "focus": [ {
        "reference": "Condition/ac3a7f7cb463b585fefa6c8135a98c84c3f1a025caf269a122b78de52545d0e8"
      } ],
      "effectiveDateTime": "2020-03-05",
      "valueQuantity": {
        "value": 2,
        "unit": "#",
        "system": "http://unitsofmeasure.org",
        "code": "1"
      },
      "specimen": {
        "reference": "Specimen/ae7c48028dc89cdd5b4accd5e83a6fe8db4f68d40f42b7494889f1844f49079b"
      }
    },
    "request": {
      "method": "PUT",
      "url": "Observation/cb5282291d1dd05585077e0335cd2bc9b1b5fc655352838523781602ae95a2b6"
    }
  }, {
    "fullUrl": "Observation/6e196396305c7c74b98501678791248ffff9dca0c9cfc6fc7372f0fe28cc6425",
    "resource": {
      "resourceType": "Observation",
      "id": "6e196396305c7c74b98501678791248ffff9dca0c9cfc6fc7372f0fe28cc6425",
      "meta": {
        "profile": [ "https://www.medizininformatik-initiative.de/fhir/ext/modul-onko/StructureDefinition/mii-pr-onko-tnm-t-kategorie" ]
      },
      "identifier": [ {
        "system": "https://bzkf.github.io/obds-to-fhir/identifiers/tnm-t-kategorie-observation-id",
        "value": "483-T"
      } ],
      "status": "final",
      "code": {
        "extension": [ {
          "url": "https://www.medizininformatik-initiative.de/fhir/ext/modul-onko/StructureDefinition/mii-ex-onko-tnm-cp-praefix",
          "valueCodeableConcept": {
            "coding": [ {
              "system": "https://www.uicc.org/resources/tnm",
              "code": "p"
            } ]
          }
        } ],
        "coding": [ {
          "system": "http://snomed.info/sct",
          "version": "http://snomed.info/sct/900000000000207008/version/20250501",
          "code": "384625004",
          "display": "pT category (observable entity)"
        } ]
      },
      "subject": {
        "reference": "Patient/a02e16474896f1d528cac71f2c9b4c45ac3c9028e3a53fb414a1f7882991ee07"
      },
      "focus": [ {
        "reference": "Condition/ac3a7f7cb463b585fefa6c8135a98c84c3f1a025caf269a122b78de52545d0e8"
      } ],
      "effectiveDateTime": "2020-03-05",
      "valueCodeableConcept": {
        "coding": [ {
          "system": "https://www.uicc.org/resources/tnm",
          "code": "T2"
        } ]
      },
      "method": {
        "coding": [ {
          "system": "https://www.medizininformatik-initiative.de/fhir/ext/modul-onko/CodeSystem/mii-cs-onko-tnm-version",
          "code": "8"
        } ]
      }
    },
    "request": {
      "method": "PUT",
      "url": "Observation/6e196396305c7c74b98501678791248ffff9dca0c9cfc6fc7372f0fe28cc6425"
    }
  }, {
    "fullUrl": "Observation/67a726d7b7d36cd2c26b0a60fb1078327666abf9fbe06490d573c0bb81ac8039",
    "resource": {
      "resourceType": "Observation",
      "id": "67a726d7b7d36cd2c26b0a60fb1078327666abf9fbe06490d573c0bb81ac8039",
      "meta": {
        "profile": [ "https://www.medizininformatik-initiative.de/fhir/ext/modul-onko/StructureDefinition/mii-pr-onko-tnm-n-kategorie" ]
      },
      "identifier": [ {
        "system": "https://bzkf.github.io/obds-to-fhir/identifiers/tnm-n-kategorie-observation-id",
        "value": "483-N"
      } ],
      "status": "final",
      "code": {
        "extension": [ {
          "url": "https://www.medizininformatik-initiative.de/fhir/ext/modul-onko/StructureDefinition/mii-ex-onko-tnm-cp-praefix",
          "valueCodeableConcept": {
            "coding": [ {
              "system": "https://www.uicc.org/resources/tnm",
              "code": "p"
            } ]
          }
        } ],
        "coding": [ {
          "system": "http://snomed.info/sct",
          "version": "http://snomed.info/sct/900000000000207008/version/20250501",
          "code": "371494008",
          "display": "pN category (observable entity)"
        } ]
      },
      "subject": {
        "reference": "Patient/a02e16474896f1d528cac71f2c9b4c45ac3c9028e3a53fb414a1f7882991ee07"
      },
      "focus": [ {
        "reference": "Condition/ac3a7f7cb463b585fefa6c8135a98c84c3f1a025caf269a122b78de52545d0e8"
      } ],
      "effectiveDateTime": "2020-03-05",
      "valueCodeableConcept": {
        "coding": [ {
          "system": "https://www.uicc.org/resources/tnm",
          "code": "N1"
        } ]
      },
      "method": {
        "coding": [ {
          "system": "https://www.medizininformatik-initiative.de/fhir/ext/modul-onko/CodeSystem/mii-cs-onko-tnm-version",
          "code": "8"
        } ]
      }
    },
    "request": {
      "method": "PUT",
      "url": "Observation/67a726d7b7d36cd2c26b0a60fb1078327666abf9fbe06490d573c0bb81ac8039"
    }
  }, {
    "fullUrl": "Observation/4974edcad2cc955eb57277fa27cc36d6449992c26ac40c74b70baf11ce280b3c",
    "resource": {
      "resourceType": "Observation",
      "id": "4974edcad2cc955eb57277fa27cc36d6449992c26ac40c74b70baf11ce280b3c",
      "meta": {
        "profile": [ "https://www.medizininformatik-initiative.de/fhir/ext/modul-onko/StructureDefinition/mii-pr-onko-tnm-m-kategorie" ]
      },
      "identifier": [ {
        "system": "https://bzkf.github.io/obds-to-fhir/identifiers/tnm-m-kategorie-observation-id",
        "value": "483-M"
      } ],
      "status": "final",
      "code": {
        "extension": [ {
          "url": "https://www.medizininformatik-initiative.de/fhir/ext/modul-onko/StructureDefinition/mii-ex-onko-tnm-cp-praefix",
          "valueCodeableConcept": {
            "coding": [ {
              "system": "https://www.uicc.org/resources/tnm",
              "code": "p"
            } ]
          }
        } ],
        "coding": [ {
          "system": "http://snomed.info/sct",
          "version": "http://snomed.info/sct/900000000000207008/version/20250501",
          "code": "371497001",
          "display": "pM category (observable entity)"
        } ]
      },
      "subject": {
        "reference": "Patient/a02e16474896f1d528cac71f2c9b4c45ac3c9028e3a53fb414a1f7882991ee07"
      },
      "focus": [ {
        "reference": "Condition/ac3a7f7cb463b585fefa6c8135a98c84c3f1a025caf269a122b78de52545d0e8"
      } ],
      "effectiveDateTime": "2020-03-05",
      "valueCodeableConcept": {
        "coding": [ {
          "system": "https://www.uicc.org/resources/tnm",
          "code": "M1"
        } ]
      },
      "method": {
        "coding": [ {
          "system": "https://www.medizininformatik-initiative.de/fhir/ext/modul-onko/CodeSystem/mii-cs-onko-tnm-version",
          "code": "8"
        } ]
      }
    },
    "request": {
      "method": "PUT",
      "url": "Observation/4974edcad2cc955eb57277fa27cc36d6449992c26ac40c74b70baf11ce280b3c"
    }
  }, {
    "fullUrl": "Observation/c652efd9ceba1b838d4d9195acf7a08e8a7347cadca1e6404224f9f970089212",
    "resource": {
      "resourceType": "Observation",
      "id": "c652efd9ceba1b838d4d9195acf7a08e8a7347cadca1e6404224f9f970089212",
      "meta": {
        "profile": [ "https://www.medizininformatik-initiative.de/fhir/ext/modul-onko/StructureDefinition/mii-pr-onko-tnm-m-symbol" ]
      },
      "identifier": [ {
        "system": "https://bzkf.github.io/obds-to-fhir/identifiers/tnm-m-symbol-observation-id",
        "value": "483-m"
      } ],
      "status": "final",
      "code": {
        "coding": [ {
          "system": "http://loinc.org",
          "version": "2.80",
          "code": "42030-7"
        } ]
      },
      "subject": {
        "reference": "Patient/a02e16474896f1d528cac71f2c9b4c45ac3c9028e3a53fb414a1f7882991ee07"
      },
      "focus": [ {
        "reference": "Condition/ac3a7f7cb463b585fefa6c8135a98c84c3f1a025caf269a122b78de52545d0e8"
      } ],
      "effectiveDateTime": "2020-03-05",
      "valueCodeableConcept": {
        "coding": [ {
          "system": "https://www.uicc.org/resources/tnm",
          "code": "3"
        } ]
      },
      "method": {
        "coding": [ {
          "system": "https://www.medizininformatik-initiative.de/fhir/ext/modul-onko/CodeSystem/mii-cs-onko-tnm-version",
          "code": "8"
        } ]
      }
    },
    "request": {
      "method": "PUT",
      "url": "Observation/c652efd9ceba1b838d4d9195acf7a08e8a7347cadca1e6404224f9f970089212"
    }
  }, {
    "fullUrl": "Observation/11a669edb81cf9afebd8089c6ef73b6459716d4c341b65db817b562781704f0e",
    "resource": {
      "resourceType": "Observation",
      "id": "11a669edb81cf9afebd8089c6ef73b6459716d4c341b65db817b562781704f0e",
      "meta": {
        "profile": [ "https://www.medizininformatik-initiative.de/fhir/ext/modul-onko/StructureDefinition/mii-pr-onko-tnm-l-kategorie" ]
      },
      "identifier": [ {
        "system": "https://bzkf.github.io/obds-to-fhir/identifiers/tnm-l-kategorie-observation-id",
        "value": "483-L"
      } ],
      "status": "final",
      "code": {
        "coding": [ {
          "system": "http://snomed.info/sct",
          "version": "http://snomed.info/sct/900000000000207008/version/20250501",
          "code": "395715009"
        } ]
      },
      "subject": {
        "reference": "Patient/a02e16474896f1d528cac71f2c9b4c45ac3c9028e3a53fb414a1f7882991ee07"
      },
      "focus": [ {
        "reference": "Condition/ac3a7f7cb463b585fefa6c8135a98c84c3f1a025caf269a122b78de52545d0e8"
      } ],
      "effectiveDateTime": "2020-03-05",
      "valueCodeableConcept": {
        "coding": [ {
          "system": "https://www.uicc.org/resources/tnm",
          "code": "L0"
        } ]
      },
      "method": {
        "coding": [ {
          "system": "https://www.medizininformatik-initiative.de/fhir/ext/modul-onko/CodeSystem/mii-cs-onko-tnm-version",
          "code": "8"
        } ]
      }
    },
    "request": {
      "method": "PUT",
      "url": "Observation/11a669edb81cf9afebd8089c6ef73b6459716d4c341b65db817b562781704f0e"
    }
  }, {
    "fullUrl": "Observation/305a98dddd0772d1372e645a5c6d58c5e344b6c76296b7964b541b1911bcf275",
    "resource": {
      "resourceType": "Observation",
      "id": "305a98dddd0772d1372e645a5c6d58c5e344b6c76296b7964b541b1911bcf275",
      "meta": {
        "profile": [ "https://www.medizininformatik-initiative.de/fhir/ext/modul-onko/StructureDefinition/mii-pr-onko-tnm-pn-kategorie" ]
      },
      "identifier": [ {
        "system": "https://bzkf.github.io/obds-to-fhir/identifiers/tnm-pn-kategorie-observation-id",
        "value": "483-Pn"
      } ],
      "status": "final",
      "code": {
        "coding": [ {
          "system": "http://snomed.info/sct",
          "version": "http://snomed.info/sct/900000000000207008/version/20250501",
          "code": "371513001"
        } ]
      },
      "subject": {
        "reference": "Patient/a02e16474896f1d528cac71f2c9b4c45ac3c9028e3a53fb414a1f7882991ee07"
      },
      "focus": [ {
        "reference": "Condition/ac3a7f7cb463b585fefa6c8135a98c84c3f1a025caf269a122b78de52545d0e8"
      } ],
      "effectiveDateTime": "2020-03-05",
      "valueCodeableConcept": {
        "coding": [ {
          "system": "https://www.uicc.org/resources/tnm",
          "code": "Pn0"
        } ]
      },
      "method": {
        "coding": [ {
          "system": "https://www.medizininformatik-initiative.de/fhir/ext/modul-onko/CodeSystem/mii-cs-onko-tnm-version",
          "code": "8"
        } ]
      }
    },
    "request": {
      "method": "PUT",
      "url": "Observation/305a98dddd0772d1372e645a5c6d58c5e344b6c76296b7964b541b1911bcf275"
    }
  }, {
    "fullUrl": "Observation/15dbd88bf16a13aaa781922704b3b5cbdf589b22b26ae25af32f6de4d7053ac2",
    "resource": {
      "resourceType": "Observation",
      "id": "15dbd88bf16a13aaa781922704b3b5cbdf589b22b26ae25af32f6de4d7053ac2",
      "meta": {
        "profile": [ "https://www.medizininformatik-initiative.de/fhir/ext/modul-onko/StructureDefinition/mii-pr-onko-tnm-v-kategorie" ]
      },
      "identifier": [ {
        "system": "https://bzkf.github.io/obds-to-fhir/identifiers/tnm-v-kategorie-observation-id",
        "value": "483-V"
      } ],
      "status": "final",
      "code": {
        "coding": [ {
          "system": "http://snomed.info/sct",
          "version": "http://snomed.info/sct/900000000000207008/version/20250501",
          "code": "371493002"
        } ]
      },
      "subject": {
        "reference": "Patient/a02e16474896f1d528cac71f2c9b4c45ac3c9028e3a53fb414a1f7882991ee07"
      },
      "focus": [ {
        "reference": "Condition/ac3a7f7cb463b585fefa6c8135a98c84c3f1a025caf269a122b78de52545d0e8"
      } ],
      "effectiveDateTime": "2020-03-05",
      "valueCodeableConcept": {
        "coding": [ {
          "system": "https://www.uicc.org/resources/tnm",
          "code": "V0"
        } ]
      },
      "method": {
        "coding": [ {
          "system": "https://www.medizininformatik-initiative.de/fhir/ext/modul-onko/CodeSystem/mii-cs-onko-tnm-version",
          "code": "8"
        } ]
      }
    },
    "request": {
      "method": "PUT",
      "url": "Observation/15dbd88bf16a13aaa781922704b3b5cbdf589b22b26ae25af32f6de4d7053ac2"
    }
  }, {
    "fullUrl": "Observation/a298575458f69b4c9484a1a7b78a15f8bbf75ec2d1fa84952746707b1a344b13",
    "resource": {
      "resourceType": "Observation",
      "id": "a298575458f69b4c9484a1a7b78a15f8bbf75ec2d1fa84952746707b1a344b13",
      "meta": {
        "profile": [ "https://www.medizininformatik-initiative.de/fhir/ext/modul-onko/StructureDefinition/mii-pr-onko-tnm-klassifikation" ]
      },
      "identifier": [ {
        "system": "https://bzkf.github.io/obds-to-fhir/identifiers/tnm-grouping-observation-id",
        "value": "483"
      } ],
      "status": "final",
      "code": {
        "coding": [ {
          "system": "http://snomed.info/sct",
          "version": "http://snomed.info/sct/900000000000207008/version/20250501",
          "code": "399390009",
          "display": "TNM stage grouping"
        } ]
      },
      "subject": {
        "reference": "Patient/a02e16474896f1d528cac71f2c9b4c45ac3c9028e3a53fb414a1f7882991ee07"
      },
      "focus": [ {
        "reference": "Condition/ac3a7f7cb463b585fefa6c8135a98c84c3f1a025caf269a122b78de52545d0e8"
      } ],
      "effectiveDateTime": "2020-03-05",
      "valueCodeableConcept": {
        "coding": [ {
          "system": "https://www.uicc.org/resources/tnm",
          "code": "IV",
          "display": "Stadium IV"
        } ]
      },
      "method": {
        "coding": [ {
          "system": "https://www.medizininformatik-initiative.de/fhir/ext/modul-onko/CodeSystem/mii-cs-onko-tnm-version",
          "code": "8"
        } ]
      },
      "hasMember": [ {
        "reference": "Observation/6e196396305c7c74b98501678791248ffff9dca0c9cfc6fc7372f0fe28cc6425"
      }, {
        "reference": "Observation/67a726d7b7d36cd2c26b0a60fb1078327666abf9fbe06490d573c0bb81ac8039"
      }, {
        "reference": "Observation/4974edcad2cc955eb57277fa27cc36d6449992c26ac40c74b70baf11ce280b3c"
      }, {
        "reference": "Observation/c652efd9ceba1b838d4d9195acf7a08e8a7347cadca1e6404224f9f970089212"
      }, {
        "reference": "Observation/11a669edb81cf9afebd8089c6ef73b6459716d4c341b65db817b562781704f0e"
      }, {
        "reference": "Observation/305a98dddd0772d1372e645a5c6d58c5e344b6c76296b7964b541b1911bcf275"
      }, {
        "reference": "Observation/15dbd88bf16a13aaa781922704b3b5cbdf589b22b26ae25af32f6de4d7053ac2"
      } ]
    },
    "request": {
      "method": "PUT",
      "url": "Observation/a298575458f69b4c9484a1a7b78a15f8bbf75ec2d1fa84952746707b1a344b13"
    }
  }, {
    "fullUrl": "Procedure/bfc5c7a0c00d1c00e9ab41a4507f8cfbbc87e13953eba89e14c3fe3a54325559",
    "resource": {
      "resourceType": "Procedure",
      "id": "bfc5c7a0c00d1c00e9ab41a4507f8cfbbc87e13953eba89e14c3fe3a54325559",
      "meta": {
        "profile": [ "https://www.medizininformatik-initiative.de/fhir/ext/modul-onko/StructureDefinition/mii-pr-onko-strahlentherapie" ]
      },
      "extension": [ {
        "url": "https://www.medizininformatik-initiative.de/fhir/ext/modul-onko/StructureDefinition/mii-ex-onko-strahlentherapie-intention",
        "valueCodeableConcept": {
          "coding": [ {
            "system": "https://www.medizininformatik-initiative.de/fhir/ext/modul-onko/CodeSystem/mii-cs-onko-intention",
            "code": "K"
          } ]
        }
      }, {
        "url": "https://www.medizininformatik-initiative.de/fhir/ext/modul-onko/StructureDefinition/mii-ex-onko-strahlentherapie-stellungzurop",
        "valueCodeableConcept": {
          "coding": [ {
            "system": "https://www.medizininformatik-initiative.de/fhir/ext/modul-onko/CodeSystem/mii-cs-therapie-stellungzurop",
            "code": "S"
          } ]
        }
      } ],
      "identifier": [ {
        "system": "https://bzkf.github.io/obds-to-fhir/identifiers/strahlentherapie-procedure-id",
        "value": "101_ST-2"
      } ],
      "status": "completed",
      "category": {
        "coding": [ {
          "system": "http://snomed.info/sct",
          "version": "http://snomed.info/sct/900000000000207008/version/20250501",
          "code": "1287742003",
          "display": "Radiotherapy (procedure)"
        } ]
      },
      "code": {
        "coding": [ {
          "system": "http://fhir.de/CodeSystem/bfarm/ops",
          "version": "2025",
          "code": "8-52",
          "display": "Strahlentherapie"
        } ]
      },
      "subject": {
        "reference": "Patient/a02e16474896f1d528cac71f2c9b4c45ac3c9028e3a53fb414a1f7882991ee07"
      },
      "performedPeriod": {
        "start": "2020-03-10",
        "end": "2020-03-20"
      },
      "reasonReference": [ {
        "reference": "Condition/ac3a7f7cb463b585fefa6c8135a98c84c3f1a025caf269a122b78de52545d0e8"
      } ],
      "outcome": {
        "coding": [ {
          "system": "https://www.medizininformatik-initiative.de/fhir/ext/modul-onko/CodeSystem/mii-cs-therapie-grund-ende",
          "code": "E"
        } ]
      }
    },
    "request": {
      "method": "PUT",
      "url": "Procedure/bfc5c7a0c00d1c00e9ab41a4507f8cfbbc87e13953eba89e14c3fe3a54325559"
    }
  }, {
    "fullUrl": "Procedure/c27e7388fd50f8dc36cea18c9cd4bf7b69adfeb98d133fca334633ff428199de",
    "resource": {
      "resourceType": "Procedure",
      "id": "c27e7388fd50f8dc36cea18c9cd4bf7b69adfeb98d133fca334633ff428199de",
      "meta": {
        "profile": [ "https://www.medizininformatik-initiative.de/fhir/ext/modul-onko/StructureDefinition/mii-pr-onko-strahlentherapie-bestrahlung-strahlentherapie" ]
      },
      "extension": [ {
        "url": "https://www.medizininformatik-initiative.de/fhir/ext/modul-onko/StructureDefinition/mii-ex-onko-strahlentherapie-bestrahlung-gesamtdosis",
        "valueQuantity": {
          "value": 30.3,
          "unit": "Gy",
          "system": "http://unitsofmeasure.org",
          "code": "Gy"
        }
      }, {
        "url": "https://www.medizininformatik-initiative.de/fhir/ext/modul-onko/StructureDefinition/mii-ex-onko-strahlentherapie-bestrahlung-einzeldosis",
        "valueQuantity": {
          "value": 5.8,
          "unit": "Gy",
          "system": "http://unitsofmeasure.org",
          "code": "Gy"
        }
      }, {
        "url": "https://www.medizininformatik-initiative.de/fhir/ext/modul-onko/StructureDefinition/mii-ex-onko-strahlentherapie-bestrahlung-boost",
        "valueCodeableConcept": {
          "coding": [ {
            "system": "https://www.medizininformatik-initiative.de/fhir/ext/modul-onko/CodeSystem/mii-cs-onko-strahlentherapie-boost",
            "code": "KON"
          } ]
        }
      } ],
      "identifier": [ {
        "system": "https://bzkf.github.io/obds-to-fhir/identifiers/strahlentherapie-bestrahlung-procedure-id",
        "value": "101_ST-2-0"
      } ],
      "partOf": [ {
        "reference": "Procedure/bfc5c7a0c00d1c00e9ab41a4507f8cfbbc87e13953eba89e14c3fe3a54325559"
      } ],
      "status": "completed",
      "category": {
        "coding": [ {
          "system": "http://snomed.info/sct",
          "version": "http://snomed.info/sct/900000000000207008/version/20250501",
          "code": "1287742003",
          "display": "Radiotherapy (procedure)"
        } ]
      },
      "code": {
        "coding": [ {
          "system": "http://fhir.de/CodeSystem/bfarm/ops",
          "version": "2025",
          "code": "8-52",
          "display": "Strahlentherapie"
        } ]
      },
      "subject": {
        "reference": "Patient/a02e16474896f1d528cac71f2c9b4c45ac3c9028e3a53fb414a1f7882991ee07"
      },
      "performedPeriod": {
        "start": "2020-03-10",
        "end": "2020-03-20"
      },
      "bodySite": [ {
        "extension": [ {
          "url": "https://www.medizininformatik-initiative.de/fhir/ext/modul-onko/StructureDefinition/mii-ex-onko-strahlentherapie-bestrahlung-seitenlokalisation",
          "valueCodeableConcept": {
            "coding": [ {
              "system": "https://www.medizininformatik-initiative.de/fhir/ext/modul-onko/CodeSystem/mii-cs-onko-seitenlokalisation",
              "code": "U"
            } ]
          }
        } ],
        "coding": [ {
          "system": "https://www.medizininformatik-initiative.de/fhir/ext/modul-onko/CodeSystem/mii-cs-onko-strahlentherapie-zielgebiet",
          "code": "3.1.-"
        } ]
      } ],
      "usedCode": [ {
        "coding": [ {
          "system": "https://www.medizininformatik-initiative.de/fhir/ext/modul-onko/CodeSystem/mii-cs-onko-strahlentherapie-strahlenart",
          "code": "Co-60"
        } ]
      }, {
        "coding": [ {
          "system": "https://www.medizininformatik-initiative.de/fhir/ext/modul-onko/CodeSystem/mii-cs-onko-strahlentherapie-applikationsart",
          "code": "PRCN-ST4D"
        } ]
      } ]
    },
    "request": {
      "method": "PUT",
      "url": "Procedure/c27e7388fd50f8dc36cea18c9cd4bf7b69adfeb98d133fca334633ff428199de"
    }
  }, {
    "fullUrl": "Procedure/b93ec958bca3fd61dd5939be3c12d044a2e224a7372af25041865250dd98493d",
    "resource": {
      "resourceType": "Procedure",
      "id": "b93ec958bca3fd61dd5939be3c12d044a2e224a7372af25041865250dd98493d",
      "meta": {
        "profile": [ "https://www.medizininformatik-initiative.de/fhir/ext/modul-onko/StructureDefinition/mii-pr-onko-strahlentherapie-bestrahlung-strahlentherapie" ]
      },
      "extension": [ {
        "url": "https://www.medizininformatik-initiative.de/fhir/ext/modul-onko/StructureDefinition/mii-ex-onko-strahlentherapie-bestrahlung-gesamtdosis",
        "valueQuantity": {
          "value": 30,
          "unit": "Gy",
          "system": "http://unitsofmeasure.org",
          "code": "Gy"
        }
      }, {
        "url": "https://www.medizininformatik-initiative.de/fhir/ext/modul-onko/StructureDefinition/mii-ex-onko-strahlentherapie-bestrahlung-einzeldosis",
        "valueQuantity": {
          "value": 5,
          "unit": "Gy",
          "system": "http://unitsofmeasure.org",
          "code": "Gy"
        }
      }, {
        "url": "https://www.medizininformatik-initiative.de/fhir/ext/modul-onko/StructureDefinition/mii-ex-onko-strahlentherapie-bestrahlung-boost",
        "valueCodeableConcept": {
          "coding": [ {
            "system": "https://www.medizininformatik-initiative.de/fhir/ext/modul-onko/CodeSystem/mii-cs-onko-strahlentherapie-boost",
            "code": "N"
          } ]
        }
      } ],
      "identifier": [ {
        "system": "https://bzkf.github.io/obds-to-fhir/identifiers/strahlentherapie-bestrahlung-procedure-id",
        "value": "101_ST-2-1"
      } ],
      "partOf": [ {
        "reference": "Procedure/bfc5c7a0c00d1c00e9ab41a4507f8cfbbc87e13953eba89e14c3fe3a54325559"
      } ],
      "status": "completed",
      "category": {
        "coding": [ {
          "system": "http://snomed.info/sct",
          "version": "http://snomed.info/sct/900000000000207008/version/20250501",
          "code": "1287742003",
          "display": "Radiotherapy (procedure)"
        } ]
      },
      "code": {
        "coding": [ {
          "system": "http://fhir.de/CodeSystem/bfarm/ops",
          "version": "2025",
          "code": "8-52",
          "display": "Strahlentherapie"
        } ]
      },
      "subject": {
        "reference": "Patient/a02e16474896f1d528cac71f2c9b4c45ac3c9028e3a53fb414a1f7882991ee07"
      },
      "performedPeriod": {
        "start": "2020-03-10",
        "end": "2020-03-20"
      },
      "bodySite": [ {
        "extension": [ {
          "url": "https://www.medizininformatik-initiative.de/fhir/ext/modul-onko/StructureDefinition/mii-ex-onko-strahlentherapie-bestrahlung-seitenlokalisation",
          "valueCodeableConcept": {
            "coding": [ {
              "system": "https://www.medizininformatik-initiative.de/fhir/ext/modul-onko/CodeSystem/mii-cs-onko-seitenlokalisation",
              "code": "L"
            } ]
          }
        } ],
        "coding": [ {
          "system": "https://www.medizininformatik-initiative.de/fhir/ext/modul-onko/CodeSystem/mii-cs-onko-strahlentherapie-zielgebiet",
          "code": "6.10"
        } ]
      } ],
      "usedCode": [ {
        "coding": [ {
          "system": "https://www.medizininformatik-initiative.de/fhir/ext/modul-onko/CodeSystem/mii-cs-onko-strahlentherapie-strahlenart",
          "code": "SO"
        } ]
      }, {
        "coding": [ {
          "system": "https://www.medizininformatik-initiative.de/fhir/ext/modul-onko/CodeSystem/mii-cs-onko-strahlentherapie-applikationsart",
          "code": "IHDR"
        } ]
      } ]
    },
    "request": {
      "method": "PUT",
      "url": "Procedure/b93ec958bca3fd61dd5939be3c12d044a2e224a7372af25041865250dd98493d"
    }
  }, {
    "fullUrl": "Procedure/68cc6dd03306fd9703859bd165a85477bea8daf5bcccc755d096c65f608c4feb",
    "resource": {
      "resourceType": "Procedure",
      "id": "68cc6dd03306fd9703859bd165a85477bea8daf5bcccc755d096c65f608c4feb",
      "meta": {
        "profile": [ "https://www.medizininformatik-initiative.de/fhir/ext/modul-onko/StructureDefinition/mii-pr-onko-strahlentherapie-bestrahlung-nuklearmedizin" ]
      },
      "extension": [ {
        "url": "https://www.medizininformatik-initiative.de/fhir/ext/modul-onko/StructureDefinition/mii-ex-onko-strahlentherapie-bestrahlung-einzeldosis",
        "valueQuantity": {
          "value": 20,
          "unit": "GBq",
          "system": "http://unitsofmeasure.org",
          "code": "GBq"
        }
      }, {
        "url": "https://www.medizininformatik-initiative.de/fhir/ext/modul-onko/StructureDefinition/mii-ex-onko-strahlentherapie-bestrahlung-gesamtdosis",
        "valueQuantity": {
          "value": 20,
          "unit": "GBq",
          "system": "http://unitsofmeasure.org",
          "code": "GBq"
        }
      } ],
      "identifier": [ {
        "system": "https://bzkf.github.io/obds-to-fhir/identifiers/strahlentherapie-bestrahlung-procedure-id",
        "value": "101_ST-2-2"
      } ],
      "partOf": [ {
        "reference": "Procedure/bfc5c7a0c00d1c00e9ab41a4507f8cfbbc87e13953eba89e14c3fe3a54325559"
      } ],
      "status": "completed",
      "category": {
        "coding": [ {
          "system": "http://snomed.info/sct",
          "version": "http://snomed.info/sct/900000000000207008/version/20250501",
          "code": "399315003",
          "display": "Radionuclide therapy (procedure)"
        } ]
      },
      "code": {
        "coding": [ {
          "system": "http://fhir.de/CodeSystem/bfarm/ops",
          "version": "2025",
          "code": "8-53",
          "display": "Nuklearmedizinische Therapie"
        } ]
      },
      "subject": {
        "reference": "Patient/a02e16474896f1d528cac71f2c9b4c45ac3c9028e3a53fb414a1f7882991ee07"
      },
      "performedPeriod": {
        "start": "2020-03-10",
        "end": "2020-03-10"
      },
      "bodySite": [ {
        "extension": [ {
          "url": "https://www.medizininformatik-initiative.de/fhir/ext/modul-onko/StructureDefinition/mii-ex-onko-strahlentherapie-bestrahlung-seitenlokalisation",
          "valueCodeableConcept": {
            "coding": [ {
              "system": "https://www.medizininformatik-initiative.de/fhir/ext/modul-onko/CodeSystem/mii-cs-onko-seitenlokalisation",
              "code": "U"
            } ]
          }
        } ],
        "coding": [ {
          "system": "https://www.medizininformatik-initiative.de/fhir/ext/modul-onko/CodeSystem/mii-cs-onko-strahlentherapie-zielgebiet",
          "code": "7.+"
        } ]
      } ],
      "usedCode": [ {
        "coding": [ {
          "system": "https://www.medizininformatik-initiative.de/fhir/ext/modul-onko/CodeSystem/mii-cs-onko-strahlentherapie-strahlenart",
          "code": "Y-90"
        } ]
      }, {
        "coding": [ {
          "system": "https://www.medizininformatik-initiative.de/fhir/ext/modul-onko/CodeSystem/mii-cs-onko-strahlentherapie-applikationsart",
          "code": "MPRRT"
        } ]
      } ]
    },
    "request": {
      "method": "PUT",
      "url": "Procedure/68cc6dd03306fd9703859bd165a85477bea8daf5bcccc755d096c65f608c4feb"
    }
  }, {
    "fullUrl": "Procedure/979e2b28475d07be69ca72da10f7aa7a7837101d2ccd80dee2e8a362f5b846d5",
    "resource": {
      "resourceType": "Procedure",
      "id": "979e2b28475d07be69ca72da10f7aa7a7837101d2ccd80dee2e8a362f5b846d5",
      "meta": {
        "profile": [ "https://www.medizininformatik-initiative.de/fhir/ext/modul-onko/StructureDefinition/mii-pr-onko-strahlentherapie-bestrahlung-strahlentherapie" ]
      },
      "extension": [ {
        "url": "https://www.medizininformatik-initiative.de/fhir/ext/modul-onko/StructureDefinition/mii-ex-onko-strahlentherapie-bestrahlung-gesamtdosis",
        "valueQuantity": {
          "value": 10.5,
          "unit": "Gy",
          "system": "http://unitsofmeasure.org",
          "code": "Gy"
        }
      }, {
        "url": "https://www.medizininformatik-initiative.de/fhir/ext/modul-onko/StructureDefinition/mii-ex-onko-strahlentherapie-bestrahlung-einzeldosis",
        "valueQuantity": {
          "value": 1.1,
          "unit": "Gy",
          "system": "http://unitsofmeasure.org",
          "code": "Gy"
        }
      } ],
      "identifier": [ {
        "system": "https://bzkf.github.io/obds-to-fhir/identifiers/strahlentherapie-bestrahlung-procedure-id",
        "value": "101_ST-2-3"
      } ],
      "partOf": [ {
        "reference": "Procedure/bfc5c7a0c00d1c00e9ab41a4507f8cfbbc87e13953eba89e14c3fe3a54325559"
      } ],
      "status": "completed",
      "category": {
        "coding": [ {
          "system": "http://snomed.info/sct",
          "version": "http://snomed.info/sct/900000000000207008/version/20250501",
          "code": "1287742003",
          "display": "Radiotherapy (procedure)"
        } ]
      },
      "code": {
        "coding": [ {
          "system": "http://fhir.de/CodeSystem/bfarm/ops",
          "version": "2025",
          "code": "8-52",
          "display": "Strahlentherapie"
        } ]
      },
      "subject": {
        "reference": "Patient/a02e16474896f1d528cac71f2c9b4c45ac3c9028e3a53fb414a1f7882991ee07"
      },
      "performedPeriod": {
        "start": "2020-03-10",
        "end": "2020-03-20"
      },
      "bodySite": [ {
        "extension": [ {
          "url": "https://www.medizininformatik-initiative.de/fhir/ext/modul-onko/StructureDefinition/mii-ex-onko-strahlentherapie-bestrahlung-seitenlokalisation",
          "valueCodeableConcept": {
            "coding": [ {
              "system": "https://www.medizininformatik-initiative.de/fhir/ext/modul-onko/CodeSystem/mii-cs-onko-seitenlokalisation",
              "code": "B"
            } ]
          }
        } ],
        "coding": [ {
          "system": "https://www.medizininformatik-initiative.de/fhir/ext/modul-onko/CodeSystem/mii-cs-onko-strahlentherapie-zielgebiet",
          "code": "6.16"
        } ]
      } ],
      "usedCode": [ {
        "coding": [ {
          "system": "https://www.medizininformatik-initiative.de/fhir/ext/modul-onko/CodeSystem/mii-cs-onko-strahlentherapie-strahlenart"
        } ]
      }, {
        "coding": [ {
          "system": "https://www.medizininformatik-initiative.de/fhir/ext/modul-onko/CodeSystem/mii-cs-onko-strahlentherapie-applikationsart",
          "code": "S"
        } ]
      } ]
    },
    "request": {
      "method": "PUT",
      "url": "Procedure/979e2b28475d07be69ca72da10f7aa7a7837101d2ccd80dee2e8a362f5b846d5"
    }
  }, {
    "fullUrl": "Procedure/8e5a61d808bb30074e894fc702086b24763c410267b91c86f75de0b3b6507ccf",
    "resource": {
      "resourceType": "Procedure",
      "id": "8e5a61d808bb30074e894fc702086b24763c410267b91c86f75de0b3b6507ccf",
      "meta": {
        "profile": [ "https://www.medizininformatik-initiative.de/fhir/ext/modul-onko/StructureDefinition/mii-pr-onko-systemische-therapie" ]
      },
      "extension": [ {
        "url": "https://www.medizininformatik-initiative.de/fhir/ext/modul-onko/StructureDefinition/mii-ex-onko-systemische-therapie-intention",
        "valueCodeableConcept": {
          "coding": [ {
            "system": "https://www.medizininformatik-initiative.de/fhir/ext/modul-onko/CodeSystem/mii-cs-onko-intention",
            "code": "P"
          } ]
        }
      }, {
        "url": "https://www.medizininformatik-initiative.de/fhir/ext/modul-onko/StructureDefinition/mii-ex-onko-strahlentherapie-stellungzurop",
        "valueCodeableConcept": {
          "coding": [ {
            "system": "https://www.medizininformatik-initiative.de/fhir/ext/modul-onko/CodeSystem/mii-cs-therapie-stellungzurop",
            "code": "S"
          } ]
        }
      } ],
      "identifier": [ {
        "system": "https://bzkf.github.io/obds-to-fhir/identifiers/systemische-therapie-procedure-id",
        "value": "101_IN-1"
      } ],
      "status": "completed",
      "category": {
        "coding": [ {
          "system": "http://snomed.info/sct",
          "version": "http://snomed.info/sct/900000000000207008/version/20250501",
          "code": "18629005",
          "display": "Administration of drug or medicament (procedure)"
        } ]
      },
      "code": {
        "coding": [ {
          "system": "http://fhir.de/CodeSystem/bfarm/ops",
          "version": "2025",
          "code": "8-54",
          "display": "Zytostatische Chemotherapie, Immuntherapie und antiretrovirale Therapie"
        }, {
          "system": "https://www.medizininformatik-initiative.de/fhir/ext/modul-onko/CodeSystem/mii-cs-onko-therapie-typ",
          "code": "IM"
        } ],
        "text": "Atezolizumab Immuntherapie"
      },
      "subject": {
        "reference": "Patient/a02e16474896f1d528cac71f2c9b4c45ac3c9028e3a53fb414a1f7882991ee07"
      },
      "performedPeriod": {
        "start": "2020-05",
        "end": "2020-10-15"
      },
      "outcome": {
        "coding": [ {
          "system": "https://www.medizininformatik-initiative.de/fhir/ext/modul-onko/CodeSystem/mii-cs-therapie-grund-ende",
          "code": "V"
        } ]
      }
    },
    "request": {
      "method": "PUT",
      "url": "Procedure/8e5a61d808bb30074e894fc702086b24763c410267b91c86f75de0b3b6507ccf"
    }
  }, {
    "fullUrl": "MedicationStatement/41659d329e36cce9d00a37cbe22aded15fd20293fe5712095db45e6c73708965",
    "resource": {
      "resourceType": "MedicationStatement",
      "id": "41659d329e36cce9d00a37cbe22aded15fd20293fe5712095db45e6c73708965",
      "meta": {
        "profile": [ "https://www.medizininformatik-initiative.de/fhir/ext/modul-onko/StructureDefinition/mii-pr-onko-systemische-therapie-medikation" ]
      },
      "identifier": [ {
        "system": "https://bzkf.github.io/obds-to-fhir/identifiers/systemische-therapie-medication-statement-id",
        "value": "101_IN-1-L01FF05"
      } ],
      "partOf": [ {
        "reference": "Procedure/8e5a61d808bb30074e894fc702086b24763c410267b91c86f75de0b3b6507ccf"
      } ],
      "status": "completed",
      "medicationCodeableConcept": {
        "coding": [ {
          "system": "http://fhir.de/CodeSystem/bfarm/atc",
          "code": "L01FF05"
        } ]
      },
      "subject": {
        "reference": "Patient/a02e16474896f1d528cac71f2c9b4c45ac3c9028e3a53fb414a1f7882991ee07"
      },
      "effectivePeriod": {
        "start": "2020-05",
        "end": "2020-10-15"
      }
    },
    "request": {
      "method": "PUT",
      "url": "MedicationStatement/41659d329e36cce9d00a37cbe22aded15fd20293fe5712095db45e6c73708965"
    }
  }, {
    "fullUrl": "CarePlan/7a14c5181ec72a8c66aaacaef9e736840e0a4cabb3ac6d29767a37e00f6f8ee3",
    "resource": {
      "resourceType": "CarePlan",
      "id": "7a14c5181ec72a8c66aaacaef9e736840e0a4cabb3ac6d29767a37e00f6f8ee3",
      "meta": {
        "profile": [ "https://www.medizininformatik-initiative.de/fhir/ext/modul-onko/StructureDefinition/mii-pr-onko-tumorkonferenz" ]
      },
      "identifier": [ {
        "system": "https://bzkf.github.io/obds-to-fhir/identifiers/tumorkonferenz-id",
        "value": "Tumorkonferenz-221"
      } ],
      "status": "completed",
      "intent": "plan",
      "category": [ {
        "coding": [ {
          "system": "https://www.medizininformatik-initiative.de/fhir/ext/modul-onko/CodeSystem/mii-cs-onko-therapieplanung-typ",
          "code": "postth"
        } ]
      } ],
      "subject": {
        "reference": "Patient/a02e16474896f1d528cac71f2c9b4c45ac3c9028e3a53fb414a1f7882991ee07"
      },
      "created": "2020-10-20",
      "addresses": [ {
        "reference": "Condition/ac3a7f7cb463b585fefa6c8135a98c84c3f1a025caf269a122b78de52545d0e8"
      } ],
      "activity": [ {
        "detail": {
          "code": {
            "coding": [ {
              "system": "https://www.medizininformatik-initiative.de/fhir/ext/modul-onko/CodeSystem/mii-cs-onko-therapie-typ",
              "code": "CH"
            } ]
          },
          "status": "cancelled",
          "statusReason": {
            "coding": [ {
              "system": "https://www.medizininformatik-initiative.de/fhir/ext/modul-onko/CodeSystem/mii-cs-onko-therapieabweichung",
              "code": "J"
            } ]
          }
        }
      } ]
    },
    "request": {
      "method": "PUT",
      "url": "CarePlan/7a14c5181ec72a8c66aaacaef9e736840e0a4cabb3ac6d29767a37e00f6f8ee3"
    }
  }, {
    "fullUrl": "Observation/c94ca17474b02eea799c245af612201dda49e75fcdbcaf86e73cdb139cb53cf7",
    "resource": {
      "resourceType": "Observation",
      "id": "c94ca17474b02eea799c245af612201dda49e75fcdbcaf86e73cdb139cb53cf7",
      "meta": {
        "profile": [ "https://www.medizininformatik-initiative.de/fhir/ext/modul-onko/StructureDefinition/mii-pr-onko-verlauf" ]
      },
      "identifier": [ {
        "system": "https://bzkf.github.io/obds-to-fhir/identifiers/observation-verlauf-id",
        "value": "341"
      } ],
      "status": "final",
      "code": {
        "coding": [ {
          "system": "http://snomed.info/sct",
          "version": "http://snomed.info/sct/900000000000207008/version/20250501",
          "code": "396432002",
          "display": "Status of regression of tumor (observable entity)"
        } ]
      },
      "subject": {
        "reference": "Patient/a02e16474896f1d528cac71f2c9b4c45ac3c9028e3a53fb414a1f7882991ee07"
      },
      "focus": [ {
        "reference": "Condition/ac3a7f7cb463b585fefa6c8135a98c84c3f1a025caf269a122b78de52545d0e8"
      } ],
      "effectiveDateTime": "2021-06-01",
      "valueCodeableConcept": {
        "coding": [ {
          "system": "https://www.medizininformatik-initiative.de/fhir/ext/modul-onko/CodeSystem/mii-cs-onko-verlauf-gesamtbeurteilung",
          "code": "Y",
          "display": "Rezidiv"
        } ]
      },
      "component": [ {
        "code": {
          "coding": [ {
            "system": "http://snomed.info/sct",
            "version": "http://snomed.info/sct/900000000000207008/version/20250501",
            "code": "277062004",
            "display": "Status des Residualtumors"
          } ]
        },
        "valueCodeableConcept": {
          "coding": [ {
            "system": "https://www.medizininformatik-initiative.de/fhir/ext/modul-onko/CodeSystem/mii-cs-onko-verlauf-primaertumor",
            "code": "R",
            "display": "Lokalrezidiv"
          } ]
        }
      }, {
        "code": {
          "coding": [ {
            "system": "http://snomed.info/sct",
            "version": "http://snomed.info/sct/900000000000207008/version/20250501",
            "code": "399656008",
            "display": "Status of tumor metastasis to regional lymph nodes (observable entity)"
          } ]
        },
        "valueCodeableConcept": {
          "coding": [ {
            "system": "https://www.medizininformatik-initiative.de/fhir/ext/modul-onko/CodeSystem/mii-cs-onko-verlauf-lymphknoten",
            "code": "R",
            "display": "neu aufgetretenes Lymphknotenrezidiv"
          } ]
        }
      }, {
        "code": {
          "coding": [ {
            "system": "http://snomed.info/sct",
            "version": "http://snomed.info/sct/900000000000207008/version/20250501",
            "code": "399608002",
            "display": "Status of distant metastasis (observable entity)"
          } ]
        },
        "valueCodeableConcept": {
          "coding": [ {
            "system": "https://www.medizininformatik-initiative.de/fhir/ext/modul-onko/CodeSystem/mii-cs-onko-verlauf-fernmetastasen",
            "code": "R",
            "display": "neu aufgetretene Fernmetastase(n) bzw. Metastasenrezidiv"
          } ]
        }
      } ]
    },
    "request": {
      "method": "PUT",
      "url": "Observation/c94ca17474b02eea799c245af612201dda49e75fcdbcaf86e73cdb139cb53cf7"
    }
  }, {
    "fullUrl": "Observation/ddbc380f1daef8dfac48e0cfea3a6c594bf1354ffdbb7a71eae13ab27e9b39ca",
    "resource": {
      "resourceType": "Observation",
      "id": "ddbc380f1daef8dfac48e0cfea3a6c594bf1354ffdbb7a71eae13ab27e9b39ca",
      "meta": {
        "profile": [ "https://www.medizininformatik-initiative.de/fhir/ext/modul-onko/StructureDefinition/mii-pr-onko-fernmetastasen" ]
      },
      "identifier": [ {
        "system": "https://bzkf.github.io/obds-to-fhir/identifiers/fernmetastasen-id",
        "value": "10_1_VE-1-Verlauf-0"
      } ],
      "status": "final",
      "code": {
        "coding": [ {
          "system": "http://snomed.info/sct",
          "version": "http://snomed.info/sct/900000000000207008/version/20250501",
          "code": "385421009",
          "display": "Anatomic location of metastatic spread of malignant neoplasm (observable entity)"
        } ]
      },
      "subject": {
        "reference": "Patient/a02e16474896f1d528cac71f2c9b4c45ac3c9028e3a53fb414a1f7882991ee07"
      },
      "focus": [ {
        "reference": "Condition/ac3a7f7cb463b585fefa6c8135a98c84c3f1a025caf269a122b78de52545d0e8"
      } ],
      "effectiveDateTime": "2021-06-01",
      "valueCodeableConcept": {
        "coding": [ {
          "system": "https://www.medizininformatik-initiative.de/fhir/ext/modul-onko/CodeSystem/mii-cs-onko-fernmetastasen",
          "code": "BRA"
        } ]
      }
    },
    "request": {
      "method": "PUT",
      "url": "Observation/ddbc380f1daef8dfac48e0cfea3a6c594bf1354ffdbb7a71eae13ab27e9b39ca"
    }
  }, {
    "fullUrl": "Observation/1b8cbcab8427f3d4b77c4814ec9e7aa065916dc5734f77115fccbf4cdcd44a2b",
    "resource": {
      "resourceType": "Observation",
      "id": "1b8cbcab8427f3d4b77c4814ec9e7aa065916dc5734f77115fccbf4cdcd44a2b",
      "meta": {
        "profile": [ "https://www.medizininformatik-initiative.de/fhir/ext/modul-onko/StructureDefinition/mii-pr-onko-allgemeiner-leistungszustand-ecog" ]
      },
      "identifier": [ {
        "system": "https://bzkf.github.io/obds-to-fhir/identifiers/allgemeiner-leistungszustand-ecog-id",
        "value": "ECOG-10_1_VE-1"
      } ],
      "status": "final",
      "code": {
        "coding": [ {
          "system": "http://snomed.info/sct",
          "version": "http://snomed.info/sct/900000000000207008/version/20250501",
          "code": "423740007",
          "display": "Eastern Cooperative Oncology Group performance status (observable entity)"
        } ]
      },
      "subject": {
        "reference": "Patient/a02e16474896f1d528cac71f2c9b4c45ac3c9028e3a53fb414a1f7882991ee07"
      },
      "focus": [ {
        "reference": "Condition/ac3a7f7cb463b585fefa6c8135a98c84c3f1a025caf269a122b78de52545d0e8"
      } ],
      "effectiveDateTime": "2021-06-01",
      "valueCodeableConcept": {
        "coding": [ {
          "system": "https://www.medizininformatik-initiative.de/fhir/ext/modul-onko/CodeSystem/mii-cs-onko-allgemeiner-leistungszustand-ecog",
          "code": "4",
          "display": "Völlig pflegebedürftig, keinerlei Selbstversorgung möglich; völlig an Bett oder Stuhl gebunden (10 - 20 % nach Karnofsky)"
        } ]
      }
    },
    "request": {
      "method": "PUT",
      "url": "Observation/1b8cbcab8427f3d4b77c4814ec9e7aa065916dc5734f77115fccbf4cdcd44a2b"
    }
  }, {
    "fullUrl": "Specimen/ad4b122c2df5025505010afee92111e127e89d717e074e5b871d492999909a20",
    "resource": {
      "resourceType": "Specimen",
      "id": "ad4b122c2df5025505010afee92111e127e89d717e074e5b871d492999909a20",
      "meta": {
        "profile": [ "https://www.medizininformatik-initiative.de/fhir/ext/modul-onko/StructureDefinition/mii-pr-onko-specimen" ]
      },
      "identifier": [ {
        "system": "https://bzkf.github.io/obds-to-fhir/identifiers/specimen-id",
        "value": "523"
      } ],
      "accessionIdentifier": {
        "value": "X/654987/1"
      },
      "subject": {
        "reference": "Patient/a02e16474896f1d528cac71f2c9b4c45ac3c9028e3a53fb414a1f7882991ee07"
      },
      "collection": {
        "collectedDateTime": "2021-06-01"
      }
    },
    "request": {
      "method": "PUT",
      "url": "Specimen/ad4b122c2df5025505010afee92111e127e89d717e074e5b871d492999909a20"
    }
  }, {
    "fullUrl": "Observation/380cd950826d9ee231a83bd5e97854e8febc6721d950f2faefc8429760206221",
    "resource": {
      "resourceType": "Observation",
      "id": "380cd950826d9ee231a83bd5e97854e8febc6721d950f2faefc8429760206221",
      "meta": {
        "profile": [ "https://www.medizininformatik-initiative.de/fhir/ext/modul-onko/StructureDefinition/mii-pr-onko-histologie-icdo3" ]
      },
      "identifier": [ {
        "system": "https://bzkf.github.io/obds-to-fhir/identifiers/observation-histologie-id",
        "value": "523-ICDO3-8010-3"
      } ],
      "status": "final",
      "code": {
        "coding": [ {
          "system": "http://loinc.org",
          "version": "2.80",
          "code": "59847-4",
          "display": "Histology and Behavior ICD-O-3 Cancer"
        } ]
      },
      "subject": {
        "reference": "Patient/a02e16474896f1d528cac71f2c9b4c45ac3c9028e3a53fb414a1f7882991ee07"
      },
      "focus": [ {
        "reference": "Condition/ac3a7f7cb463b585fefa6c8135a98c84c3f1a025caf269a122b78de52545d0e8"
      } ],
      "effectiveDateTime": "2021-06-01",
      "valueCodeableConcept": {
        "coding": [ {
          "system": "http://terminology.hl7.org/CodeSystem/icd-o-3",
          "version": "33",
          "code": "8010/3"
        } ],
        "text": "Karzinom o.n.A."
      },
      "specimen": {
        "reference": "Specimen/ad4b122c2df5025505010afee92111e127e89d717e074e5b871d492999909a20"
      }
    },
    "request": {
      "method": "PUT",
      "url": "Observation/380cd950826d9ee231a83bd5e97854e8febc6721d950f2faefc8429760206221"
    }
  }, {
    "fullUrl": "Observation/054c6f48e9e36f31d41a4f28976fc3d047d11cd42ac74dd04281dd6844a77746",
    "resource": {
      "resourceType": "Observation",
      "id": "054c6f48e9e36f31d41a4f28976fc3d047d11cd42ac74dd04281dd6844a77746",
      "meta": {
        "profile": [ "https://www.medizininformatik-initiative.de/fhir/ext/modul-onko/StructureDefinition/mii-pr-onko-grading" ]
      },
      "identifier": [ {
        "system": "https://bzkf.github.io/obds-to-fhir/identifiers/grading-observation-id",
        "value": "523-grading"
      } ],
      "status": "final",
      "category": [ {
        "coding": [ {
          "system": "http://terminology.hl7.org/CodeSystem/observation-category",
          "code": "laboratory"
        } ]
      } ],
      "code": {
        "coding": [ {
          "system": "http://loinc.org",
          "version": "2.80",
          "code": "33732-9",
          "display": "Histology grade [Identifier] in Cancer specimen"
        }, {
          "system": "http://snomed.info/sct",
          "version": "http://snomed.info/sct/900000000000207008/version/20250501",
          "code": "371469007",
          "display": "Histologic grade of neoplasm (observable entity)"
        } ]
      },
      "subject": {
        "reference": "Patient/a02e16474896f1d528cac71f2c9b4c45ac3c9028e3a53fb414a1f7882991ee07"
      },
      "focus": [ {
        "reference": "Condition/ac3a7f7cb463b585fefa6c8135a98c84c3f1a025caf269a122b78de52545d0e8"
      } ],
      "effectiveDateTime": "2021-06-01",
      "valueCodeableConcept": {
        "coding": [ {
          "system": "https://www.medizininformatik-initiative.de/fhir/ext/modul-onko/CodeSystem/mii-cs-onko-grading",
          "code": "2"
        } ]
      },
      "specimen": {
        "reference": "Specimen/ad4b122c2df5025505010afee92111e127e89d717e074e5b871d492999909a20"
      }
    },
    "request": {
      "method": "PUT",
      "url": "Observation/054c6f48e9e36f31d41a4f28976fc3d047d11cd42ac74dd04281dd6844a77746"
    }
  }, {
    "fullUrl": "Observation/ccbfd0f25864822530c0f7190b715c5b23e037a56941bf70d6c84f0bb3284f2a",
    "resource": {
      "resourceType": "Observation",
      "id": "ccbfd0f25864822530c0f7190b715c5b23e037a56941bf70d6c84f0bb3284f2a",
      "meta": {
        "profile": [ "https://www.medizininformatik-initiative.de/fhir/ext/modul-onko/StructureDefinition/mii-pr-onko-anzahl-befallene-lymphknoten" ]
      },
      "identifier": [ {
        "system": "https://bzkf.github.io/obds-to-fhir/identifiers/observation-histologie-id",
        "value": "523-befallen"
      } ],
      "status": "final",
      "category": [ {
        "coding": [ {
          "system": "http://terminology.hl7.org/CodeSystem/observation-category",
          "code": "laboratory"
        } ]
      } ],
      "code": {
        "coding": [ {
          "system": "http://loinc.org",
          "version": "2.80",
          "code": "21893-3"
        }, {
          "system": "http://snomed.info/sct",
          "version": "http://snomed.info/sct/900000000000207008/version/20250501",
          "code": "443527007"
        } ]
      },
      "subject": {
        "reference": "Patient/a02e16474896f1d528cac71f2c9b4c45ac3c9028e3a53fb414a1f7882991ee07"
      },
      "focus": [ {
        "reference": "Condition/ac3a7f7cb463b585fefa6c8135a98c84c3f1a025caf269a122b78de52545d0e8"
      } ],
      "effectiveDateTime": "2021-06-01",
      "valueQuantity": {
        "value": 5,
        "unit": "#",
        "system": "http://unitsofmeasure.org",
        "code": "1"
      },
      "specimen": {
        "reference": "Specimen/ad4b122c2df5025505010afee92111e127e89d717e074e5b871d492999909a20"
      }
    },
    "request": {
      "method": "PUT",
      "url": "Observation/ccbfd0f25864822530c0f7190b715c5b23e037a56941bf70d6c84f0bb3284f2a"
    }
  }, {
    "fullUrl": "Observation/f890ddb4bde36b4c0c072b2cf057cd7d2379983f076e3e847b0ccda57702789b",
    "resource": {
      "resourceType": "Observation",
      "id": "f890ddb4bde36b4c0c072b2cf057cd7d2379983f076e3e847b0ccda57702789b",
      "meta": {
        "profile": [ "https://www.medizininformatik-initiative.de/fhir/ext/modul-onko/StructureDefinition/mii-pr-onko-anzahl-untersuchte-lymphknoten" ]
      },
      "identifier": [ {
        "system": "https://bzkf.github.io/obds-to-fhir/identifiers/observation-histologie-id",
        "value": "523-untersucht"
      } ],
      "status": "final",
      "category": [ {
        "coding": [ {
          "system": "http://terminology.hl7.org/CodeSystem/observation-category",
          "code": "laboratory"
        } ]
      } ],
      "code": {
        "coding": [ {
          "system": "http://loinc.org",
          "version": "2.80",
          "code": "21894-1"
        }, {
          "system": "http://snomed.info/sct",
          "version": "http://snomed.info/sct/900000000000207008/version/20250501",
          "code": "444025001"
        } ]
      },
      "subject": {
        "reference": "Patient/a02e16474896f1d528cac71f2c9b4c45ac3c9028e3a53fb414a1f7882991ee07"
      },
      "focus": [ {
        "reference": "Condition/ac3a7f7cb463b585fefa6c8135a98c84c3f1a025caf269a122b78de52545d0e8"
      } ],
      "effectiveDateTime": "2021-06-01",
      "valueQuantity": {
        "value": 5,
        "unit": "#",
        "system": "http://unitsofmeasure.org",
        "code": "1"
      },
      "specimen": {
        "reference": "Specimen/ad4b122c2df5025505010afee92111e127e89d717e074e5b871d492999909a20"
      }
    },
    "request": {
      "method": "PUT",
      "url": "Observation/f890ddb4bde36b4c0c072b2cf057cd7d2379983f076e3e847b0ccda57702789b"
    }
  }, {
    "fullUrl": "Observation/0fd2af8dc29b135e268a52b4a594f9aa7061f22b72caa1304d8fdc70d937b883",
    "resource": {
      "resourceType": "Observation",
      "id": "0fd2af8dc29b135e268a52b4a594f9aa7061f22b72caa1304d8fdc70d937b883",
      "meta": {
        "profile": [ "https://www.medizininformatik-initiative.de/fhir/ext/modul-onko/StructureDefinition/mii-pr-onko-anzahl-befallene-sentinel-lymphknoten" ]
      },
      "identifier": [ {
        "system": "https://bzkf.github.io/obds-to-fhir/identifiers/observation-histologie-id",
        "value": "523-befallen-sentinel"
      } ],
      "status": "final",
      "category": [ {
        "coding": [ {
          "system": "http://terminology.hl7.org/CodeSystem/observation-category",
          "code": "laboratory"
        } ]
      } ],
      "code": {
        "coding": [ {
          "system": "http://loinc.org",
          "version": "2.80",
          "code": "92832-5"
        }, {
          "system": "http://snomed.info/sct",
          "version": "http://snomed.info/sct/900000000000207008/version/20250501",
          "code": "1264491009"
        } ]
      },
      "subject": {
        "reference": "Patient/a02e16474896f1d528cac71f2c9b4c45ac3c9028e3a53fb414a1f7882991ee07"
      },
      "focus": [ {
        "reference": "Condition/ac3a7f7cb463b585fefa6c8135a98c84c3f1a025caf269a122b78de52545d0e8"
      } ],
      "effectiveDateTime": "2021-06-01",
      "valueQuantity": {
        "value": 1,
        "unit": "#",
        "system": "http://unitsofmeasure.org",
        "code": "1"
      },
      "specimen": {
        "reference": "Specimen/ad4b122c2df5025505010afee92111e127e89d717e074e5b871d492999909a20"
      }
    },
    "request": {
      "method": "PUT",
      "url": "Observation/0fd2af8dc29b135e268a52b4a594f9aa7061f22b72caa1304d8fdc70d937b883"
    }
  }, {
    "fullUrl": "Observation/1812e73c6e2b788c19af82c8fbd82e7a3399411894a1826b5795156049ac6216",
    "resource": {
      "resourceType": "Observation",
      "id": "1812e73c6e2b788c19af82c8fbd82e7a3399411894a1826b5795156049ac6216",
      "meta": {
        "profile": [ "https://www.medizininformatik-initiative.de/fhir/ext/modul-onko/StructureDefinition/mii-pr-onko-anzahl-untersuchte-sentinel-lymphknoten" ]
      },
      "identifier": [ {
        "system": "https://bzkf.github.io/obds-to-fhir/identifiers/observation-histologie-id",
        "value": "523-untersucht-sentinel"
      } ],
      "status": "final",
      "category": [ {
        "coding": [ {
          "system": "http://terminology.hl7.org/CodeSystem/observation-category",
          "code": "laboratory"
        } ]
      } ],
      "code": {
        "coding": [ {
          "system": "http://loinc.org",
          "version": "2.80",
          "code": "85347-3"
        }, {
          "system": "http://snomed.info/sct",
          "version": "http://snomed.info/sct/900000000000207008/version/20250501",
          "code": "444411008"
        } ]
      },
      "subject": {
        "reference": "Patient/a02e16474896f1d528cac71f2c9b4c45ac3c9028e3a53fb414a1f7882991ee07"
      },
      "focus": [ {
        "reference": "Condition/ac3a7f7cb463b585fefa6c8135a98c84c3f1a025caf269a122b78de52545d0e8"
      } ],
      "effectiveDateTime": "2021-06-01",
      "valueQuantity": {
        "value": 1,
        "unit": "#",
        "system": "http://unitsofmeasure.org",
        "code": "1"
      },
      "specimen": {
        "reference": "Specimen/ad4b122c2df5025505010afee92111e127e89d717e074e5b871d492999909a20"
      }
    },
    "request": {
      "method": "PUT",
      "url": "Observation/1812e73c6e2b788c19af82c8fbd82e7a3399411894a1826b5795156049ac6216"
    }
  }, {
    "fullUrl": "Observation/d5d6b1d6f4a5e99c2a99e30149eb6646f22da1a10240214cde8ad4e75742aacc",
    "resource": {
      "resourceType": "Observation",
      "id": "d5d6b1d6f4a5e99c2a99e30149eb6646f22da1a10240214cde8ad4e75742aacc",
      "meta": {
        "profile": [ "https://www.medizininformatik-initiative.de/fhir/ext/modul-onko/StructureDefinition/mii-pr-onko-genetische-variante" ]
      },
      "identifier": [ {
        "system": "https://bzkf.github.io/obds-to-fhir/identifiers/genetische-variante-id",
        "value": "GenetischeAuspraegung-Verlauf-10_1_VE-1-W-0"
      } ],
      "status": "final",
      "category": [ {
        "coding": [ {
          "system": "http://terminology.hl7.org/CodeSystem/observation-category",
          "code": "laboratory",
          "display": "Laboratory"
        } ]
      } ],
      "code": {
        "coding": [ {
          "system": "http://loinc.org",
          "version": "2.80",
          "code": "69548-6",
          "display": "Genetic variant assessment"
        } ]
      },
      "subject": {
        "reference": "Patient/a02e16474896f1d528cac71f2c9b4c45ac3c9028e3a53fb414a1f7882991ee07"
      },
      "focus": [ {
        "reference": "Condition/ac3a7f7cb463b585fefa6c8135a98c84c3f1a025caf269a122b78de52545d0e8"
      } ],
      "effectiveDateTime": "2021-06-01",
      "interpretation": [ {
        "coding": [ {
          "system": "https://www.medizininformatik-initiative.de/fhir/ext/modul-onko/CodeSystem/mii-cs-onko-genetische-variante-auspraegung",
          "code": "W"
        } ]
      } ],
      "note": [ {
        "text": "BLUB"
      } ]
    },
    "request": {
      "method": "PUT",
      "url": "Observation/d5d6b1d6f4a5e99c2a99e30149eb6646f22da1a10240214cde8ad4e75742aacc"
    }
  }, {
    "fullUrl": "Observation/b7ed2547091d8613e17f5f2d23807785b45d73747523bc56e04338e3133ddbe8",
    "resource": {
      "resourceType": "Observation",
      "id": "b7ed2547091d8613e17f5f2d23807785b45d73747523bc56e04338e3133ddbe8",
      "meta": {
        "profile": [ "https://www.medizininformatik-initiative.de/fhir/ext/modul-onko/StructureDefinition/mii-pr-onko-tnm-t-kategorie" ]
      },
      "identifier": [ {
        "system": "https://bzkf.github.io/obds-to-fhir/identifiers/tnm-t-kategorie-observation-id",
        "value": "484-T"
      } ],
      "status": "final",
      "code": {
        "extension": [ {
          "url": "https://www.medizininformatik-initiative.de/fhir/ext/modul-onko/StructureDefinition/mii-ex-onko-tnm-cp-praefix",
          "valueCodeableConcept": {
            "coding": [ {
              "system": "https://www.uicc.org/resources/tnm",
              "code": "p"
            } ]
          }
        } ],
        "coding": [ {
          "system": "http://snomed.info/sct",
          "version": "http://snomed.info/sct/900000000000207008/version/20250501",
          "code": "384625004",
          "display": "pT category (observable entity)"
        } ]
      },
      "subject": {
        "reference": "Patient/a02e16474896f1d528cac71f2c9b4c45ac3c9028e3a53fb414a1f7882991ee07"
      },
      "focus": [ {
        "reference": "Condition/ac3a7f7cb463b585fefa6c8135a98c84c3f1a025caf269a122b78de52545d0e8"
      } ],
      "effectiveDateTime": "2021-06-01",
      "valueCodeableConcept": {
        "coding": [ {
          "system": "https://www.uicc.org/resources/tnm",
          "code": "T3"
        } ]
      },
      "method": {
        "coding": [ {
          "system": "https://www.medizininformatik-initiative.de/fhir/ext/modul-onko/CodeSystem/mii-cs-onko-tnm-version",
          "code": "8"
        } ]
      }
    },
    "request": {
      "method": "PUT",
      "url": "Observation/b7ed2547091d8613e17f5f2d23807785b45d73747523bc56e04338e3133ddbe8"
    }
  }, {
    "fullUrl": "Observation/ccebcfc09ee881e57eed0b914d46b9c5116700a490f218ea3ab0f7cd91fedfa4",
    "resource": {
      "resourceType": "Observation",
      "id": "ccebcfc09ee881e57eed0b914d46b9c5116700a490f218ea3ab0f7cd91fedfa4",
      "meta": {
        "profile": [ "https://www.medizininformatik-initiative.de/fhir/ext/modul-onko/StructureDefinition/mii-pr-onko-tnm-n-kategorie" ]
      },
      "identifier": [ {
        "system": "https://bzkf.github.io/obds-to-fhir/identifiers/tnm-n-kategorie-observation-id",
        "value": "484-N"
      } ],
      "status": "final",
      "code": {
        "extension": [ {
          "url": "https://www.medizininformatik-initiative.de/fhir/ext/modul-onko/StructureDefinition/mii-ex-onko-tnm-cp-praefix",
          "valueCodeableConcept": {
            "coding": [ {
              "system": "https://www.uicc.org/resources/tnm",
              "code": "p"
            } ]
          }
        } ],
        "coding": [ {
          "system": "http://snomed.info/sct",
          "version": "http://snomed.info/sct/900000000000207008/version/20250501",
          "code": "371494008",
          "display": "pN category (observable entity)"
        } ]
      },
      "subject": {
        "reference": "Patient/a02e16474896f1d528cac71f2c9b4c45ac3c9028e3a53fb414a1f7882991ee07"
      },
      "focus": [ {
        "reference": "Condition/ac3a7f7cb463b585fefa6c8135a98c84c3f1a025caf269a122b78de52545d0e8"
      } ],
      "effectiveDateTime": "2021-06-01",
      "valueCodeableConcept": {
        "coding": [ {
          "system": "https://www.uicc.org/resources/tnm",
          "code": "N3"
        } ]
      },
      "method": {
        "coding": [ {
          "system": "https://www.medizininformatik-initiative.de/fhir/ext/modul-onko/CodeSystem/mii-cs-onko-tnm-version",
          "code": "8"
        } ]
      }
    },
    "request": {
      "method": "PUT",
      "url": "Observation/ccebcfc09ee881e57eed0b914d46b9c5116700a490f218ea3ab0f7cd91fedfa4"
    }
  }, {
    "fullUrl": "Observation/133b67ace64749b78055185e7391a66850d43fdab3a3dd1edc07f0d74b690457",
    "resource": {
      "resourceType": "Observation",
      "id": "133b67ace64749b78055185e7391a66850d43fdab3a3dd1edc07f0d74b690457",
      "meta": {
        "profile": [ "https://www.medizininformatik-initiative.de/fhir/ext/modul-onko/StructureDefinition/mii-pr-onko-tnm-m-kategorie" ]
      },
      "identifier": [ {
        "system": "https://bzkf.github.io/obds-to-fhir/identifiers/tnm-m-kategorie-observation-id",
        "value": "484-M"
      } ],
      "status": "final",
      "code": {
        "extension": [ {
          "url": "https://www.medizininformatik-initiative.de/fhir/ext/modul-onko/StructureDefinition/mii-ex-onko-tnm-cp-praefix",
          "valueCodeableConcept": {
            "coding": [ {
              "system": "https://www.uicc.org/resources/tnm",
              "code": "p"
            } ]
          }
        } ],
        "coding": [ {
          "system": "http://snomed.info/sct",
          "version": "http://snomed.info/sct/900000000000207008/version/20250501",
          "code": "371497001",
          "display": "pM category (observable entity)"
        } ]
      },
      "subject": {
        "reference": "Patient/a02e16474896f1d528cac71f2c9b4c45ac3c9028e3a53fb414a1f7882991ee07"
      },
      "focus": [ {
        "reference": "Condition/ac3a7f7cb463b585fefa6c8135a98c84c3f1a025caf269a122b78de52545d0e8"
      } ],
      "effectiveDateTime": "2021-06-01",
      "valueCodeableConcept": {
        "coding": [ {
          "system": "https://www.uicc.org/resources/tnm",
          "code": "M1"
        } ]
      },
      "method": {
        "coding": [ {
          "system": "https://www.medizininformatik-initiative.de/fhir/ext/modul-onko/CodeSystem/mii-cs-onko-tnm-version",
          "code": "8"
        } ]
      }
    },
    "request": {
      "method": "PUT",
      "url": "Observation/133b67ace64749b78055185e7391a66850d43fdab3a3dd1edc07f0d74b690457"
    }
  }, {
    "fullUrl": "Observation/6e40744591f8003f7addaded67d45b77e157f2783e9ffaabcb52f533d36e7811",
    "resource": {
      "resourceType": "Observation",
      "id": "6e40744591f8003f7addaded67d45b77e157f2783e9ffaabcb52f533d36e7811",
      "meta": {
        "profile": [ "https://www.medizininformatik-initiative.de/fhir/ext/modul-onko/StructureDefinition/mii-pr-onko-tnm-l-kategorie" ]
      },
      "identifier": [ {
        "system": "https://bzkf.github.io/obds-to-fhir/identifiers/tnm-l-kategorie-observation-id",
        "value": "484-L"
      } ],
      "status": "final",
      "code": {
        "coding": [ {
          "system": "http://snomed.info/sct",
          "version": "http://snomed.info/sct/900000000000207008/version/20250501",
          "code": "395715009"
        } ]
      },
      "subject": {
        "reference": "Patient/a02e16474896f1d528cac71f2c9b4c45ac3c9028e3a53fb414a1f7882991ee07"
      },
      "focus": [ {
        "reference": "Condition/ac3a7f7cb463b585fefa6c8135a98c84c3f1a025caf269a122b78de52545d0e8"
      } ],
      "effectiveDateTime": "2021-06-01",
      "valueCodeableConcept": {
        "coding": [ {
          "system": "https://www.uicc.org/resources/tnm",
          "code": "L1"
        } ]
      },
      "method": {
        "coding": [ {
          "system": "https://www.medizininformatik-initiative.de/fhir/ext/modul-onko/CodeSystem/mii-cs-onko-tnm-version",
          "code": "8"
        } ]
      }
    },
    "request": {
      "method": "PUT",
      "url": "Observation/6e40744591f8003f7addaded67d45b77e157f2783e9ffaabcb52f533d36e7811"
    }
  }, {
    "fullUrl": "Observation/fb46c2e1c304ac749113c2bfa19b9658f5210b3ca9383d9bb76a03d5b7da3660",
    "resource": {
      "resourceType": "Observation",
      "id": "fb46c2e1c304ac749113c2bfa19b9658f5210b3ca9383d9bb76a03d5b7da3660",
      "meta": {
        "profile": [ "https://www.medizininformatik-initiative.de/fhir/ext/modul-onko/StructureDefinition/mii-pr-onko-tnm-pn-kategorie" ]
      },
      "identifier": [ {
        "system": "https://bzkf.github.io/obds-to-fhir/identifiers/tnm-pn-kategorie-observation-id",
        "value": "484-Pn"
      } ],
      "status": "final",
      "code": {
        "coding": [ {
          "system": "http://snomed.info/sct",
          "version": "http://snomed.info/sct/900000000000207008/version/20250501",
          "code": "371513001"
        } ]
      },
      "subject": {
        "reference": "Patient/a02e16474896f1d528cac71f2c9b4c45ac3c9028e3a53fb414a1f7882991ee07"
      },
      "focus": [ {
        "reference": "Condition/ac3a7f7cb463b585fefa6c8135a98c84c3f1a025caf269a122b78de52545d0e8"
      } ],
      "effectiveDateTime": "2021-06-01",
      "valueCodeableConcept": {
        "coding": [ {
          "system": "https://www.uicc.org/resources/tnm",
          "code": "Pn1"
        } ]
      },
      "method": {
        "coding": [ {
          "system": "https://www.medizininformatik-initiative.de/fhir/ext/modul-onko/CodeSystem/mii-cs-onko-tnm-version",
          "code": "8"
        } ]
      }
    },
    "request": {
      "method": "PUT",
      "url": "Observation/fb46c2e1c304ac749113c2bfa19b9658f5210b3ca9383d9bb76a03d5b7da3660"
    }
  }, {
    "fullUrl": "Observation/868cffb6f85ab5bd7559006944d3937de0d66ee2fba26d0f5e902c4b2dec7ba0",
    "resource": {
      "resourceType": "Observation",
      "id": "868cffb6f85ab5bd7559006944d3937de0d66ee2fba26d0f5e902c4b2dec7ba0",
      "meta": {
        "profile": [ "https://www.medizininformatik-initiative.de/fhir/ext/modul-onko/StructureDefinition/mii-pr-onko-tnm-r-symbol" ]
      },
      "identifier": [ {
        "system": "https://bzkf.github.io/obds-to-fhir/identifiers/tnm-r-symbol-observation-id",
        "value": "484-r"
      } ],
      "status": "final",
      "code": {
        "coding": [ {
          "system": "http://loinc.org",
          "version": "2.80",
          "code": "101659-1"
        } ]
      },
      "subject": {
        "reference": "Patient/a02e16474896f1d528cac71f2c9b4c45ac3c9028e3a53fb414a1f7882991ee07"
      },
      "focus": [ {
        "reference": "Condition/ac3a7f7cb463b585fefa6c8135a98c84c3f1a025caf269a122b78de52545d0e8"
      } ],
      "effectiveDateTime": "2021-06-01",
      "valueCodeableConcept": {
        "coding": [ {
          "system": "http://snomed.info/sct",
          "version": "http://snomed.info/sct/900000000000207008/version/20250501",
          "code": "421188008"
        } ]
      },
      "method": {
        "coding": [ {
          "system": "https://www.medizininformatik-initiative.de/fhir/ext/modul-onko/CodeSystem/mii-cs-onko-tnm-version",
          "code": "8"
        } ]
      }
    },
    "request": {
      "method": "PUT",
      "url": "Observation/868cffb6f85ab5bd7559006944d3937de0d66ee2fba26d0f5e902c4b2dec7ba0"
    }
  }, {
    "fullUrl": "Observation/e15a2217b3e16f94c947f59ca7b01687f5286dfd501c01ba444d7d064d47a366",
    "resource": {
      "resourceType": "Observation",
      "id": "e15a2217b3e16f94c947f59ca7b01687f5286dfd501c01ba444d7d064d47a366",
      "meta": {
        "profile": [ "https://www.medizininformatik-initiative.de/fhir/ext/modul-onko/StructureDefinition/mii-pr-onko-tnm-v-kategorie" ]
      },
      "identifier": [ {
        "system": "https://bzkf.github.io/obds-to-fhir/identifiers/tnm-v-kategorie-observation-id",
        "value": "484-V"
      } ],
      "status": "final",
      "code": {
        "coding": [ {
          "system": "http://snomed.info/sct",
          "version": "http://snomed.info/sct/900000000000207008/version/20250501",
          "code": "371493002"
        } ]
      },
      "subject": {
        "reference": "Patient/a02e16474896f1d528cac71f2c9b4c45ac3c9028e3a53fb414a1f7882991ee07"
      },
      "focus": [ {
        "reference": "Condition/ac3a7f7cb463b585fefa6c8135a98c84c3f1a025caf269a122b78de52545d0e8"
      } ],
      "effectiveDateTime": "2021-06-01",
      "valueCodeableConcept": {
        "coding": [ {
          "system": "https://www.uicc.org/resources/tnm",
          "code": "V2"
        } ]
      },
      "method": {
        "coding": [ {
          "system": "https://www.medizininformatik-initiative.de/fhir/ext/modul-onko/CodeSystem/mii-cs-onko-tnm-version",
          "code": "8"
        } ]
      }
    },
    "request": {
      "method": "PUT",
      "url": "Observation/e15a2217b3e16f94c947f59ca7b01687f5286dfd501c01ba444d7d064d47a366"
    }
  }, {
    "fullUrl": "Observation/f85b82a87a4e42b6d9d73d33e2f14f5f3d1025d81311d491a3ca2a4c0f5d25e5",
    "resource": {
      "resourceType": "Observation",
      "id": "f85b82a87a4e42b6d9d73d33e2f14f5f3d1025d81311d491a3ca2a4c0f5d25e5",
      "meta": {
        "profile": [ "https://www.medizininformatik-initiative.de/fhir/ext/modul-onko/StructureDefinition/mii-pr-onko-tnm-klassifikation" ]
      },
      "identifier": [ {
        "system": "https://bzkf.github.io/obds-to-fhir/identifiers/tnm-grouping-observation-id",
        "value": "484"
      } ],
      "status": "final",
      "code": {
        "coding": [ {
          "system": "http://snomed.info/sct",
          "version": "http://snomed.info/sct/900000000000207008/version/20250501",
          "code": "399390009",
          "display": "TNM stage grouping"
        } ]
      },
      "subject": {
        "reference": "Patient/a02e16474896f1d528cac71f2c9b4c45ac3c9028e3a53fb414a1f7882991ee07"
      },
      "focus": [ {
        "reference": "Condition/ac3a7f7cb463b585fefa6c8135a98c84c3f1a025caf269a122b78de52545d0e8"
      } ],
      "effectiveDateTime": "2021-06-01",
      "valueCodeableConcept": {
        "coding": [ {
          "system": "https://www.uicc.org/resources/tnm",
          "code": "IIIA",
          "display": "Stadium IIIA"
        } ]
      },
      "method": {
        "coding": [ {
          "system": "https://www.medizininformatik-initiative.de/fhir/ext/modul-onko/CodeSystem/mii-cs-onko-tnm-version",
          "code": "8"
        } ]
      },
      "hasMember": [ {
        "reference": "Observation/b7ed2547091d8613e17f5f2d23807785b45d73747523bc56e04338e3133ddbe8"
      }, {
        "reference": "Observation/ccebcfc09ee881e57eed0b914d46b9c5116700a490f218ea3ab0f7cd91fedfa4"
      }, {
        "reference": "Observation/133b67ace64749b78055185e7391a66850d43fdab3a3dd1edc07f0d74b690457"
      }, {
        "reference": "Observation/6e40744591f8003f7addaded67d45b77e157f2783e9ffaabcb52f533d36e7811"
      }, {
        "reference": "Observation/fb46c2e1c304ac749113c2bfa19b9658f5210b3ca9383d9bb76a03d5b7da3660"
      }, {
        "reference": "Observation/868cffb6f85ab5bd7559006944d3937de0d66ee2fba26d0f5e902c4b2dec7ba0"
      }, {
        "reference": "Observation/e15a2217b3e16f94c947f59ca7b01687f5286dfd501c01ba444d7d064d47a366"
      } ]
    },
    "request": {
      "method": "PUT",
      "url": "Observation/f85b82a87a4e42b6d9d73d33e2f14f5f3d1025d81311d491a3ca2a4c0f5d25e5"
    }
  }, {
    "fullUrl": "Observation/819f7208b884155dc6722e070d39a269ff47c1ac0a37e5fd96b84c9cbbbbea1c",
    "resource": {
      "resourceType": "Observation",
      "id": "819f7208b884155dc6722e070d39a269ff47c1ac0a37e5fd96b84c9cbbbbea1c",
      "meta": {
        "profile": [ "https://www.medizininformatik-initiative.de/fhir/ext/modul-onko/StructureDefinition/mii-pr-onko-verlauf" ]
      },
      "identifier": [ {
        "system": "https://bzkf.github.io/obds-to-fhir/identifiers/observation-verlauf-id",
        "value": "342"
      } ],
      "status": "final",
      "code": {
        "coding": [ {
          "system": "http://snomed.info/sct",
          "version": "http://snomed.info/sct/900000000000207008/version/20250501",
          "code": "396432002",
          "display": "Status of regression of tumor (observable entity)"
        } ]
      },
      "subject": {
        "reference": "Patient/a02e16474896f1d528cac71f2c9b4c45ac3c9028e3a53fb414a1f7882991ee07"
      },
      "focus": [ {
        "reference": "Condition/ac3a7f7cb463b585fefa6c8135a98c84c3f1a025caf269a122b78de52545d0e8"
      } ],
      "effectiveDateTime": "2021-12-02",
      "valueCodeableConcept": {
        "coding": [ {
          "system": "https://www.medizininformatik-initiative.de/fhir/ext/modul-onko/CodeSystem/mii-cs-onko-verlauf-gesamtbeurteilung",
          "code": "K",
          "display": "keine Änderung"
        } ]
      },
      "component": [ {
        "code": {
          "coding": [ {
            "system": "http://snomed.info/sct",
            "version": "http://snomed.info/sct/900000000000207008/version/20250501",
            "code": "277062004",
            "display": "Status des Residualtumors"
          } ]
        },
        "valueCodeableConcept": {
          "coding": [ {
            "system": "https://www.medizininformatik-initiative.de/fhir/ext/modul-onko/CodeSystem/mii-cs-onko-verlauf-primaertumor",
            "code": "N",
            "display": "Tumorreste (Residualtumor) No Change"
          } ]
        }
      }, {
        "code": {
          "coding": [ {
            "system": "http://snomed.info/sct",
            "version": "http://snomed.info/sct/900000000000207008/version/20250501",
            "code": "399656008",
            "display": "Status of tumor metastasis to regional lymph nodes (observable entity)"
          } ]
        },
        "valueCodeableConcept": {
          "coding": [ {
            "system": "https://www.medizininformatik-initiative.de/fhir/ext/modul-onko/CodeSystem/mii-cs-onko-verlauf-lymphknoten",
            "code": "N",
            "display": "bekannter Lymphknotenbefall No Change"
          } ]
        }
      }, {
        "code": {
          "coding": [ {
            "system": "http://snomed.info/sct",
            "version": "http://snomed.info/sct/900000000000207008/version/20250501",
            "code": "399608002",
            "display": "Status of distant metastasis (observable entity)"
          } ]
        },
        "valueCodeableConcept": {
          "coding": [ {
            "system": "https://www.medizininformatik-initiative.de/fhir/ext/modul-onko/CodeSystem/mii-cs-onko-verlauf-fernmetastasen",
            "code": "X",
            "display": "fehlende Angabe"
          } ]
        }
      } ]
    },
    "request": {
      "method": "PUT",
      "url": "Observation/819f7208b884155dc6722e070d39a269ff47c1ac0a37e5fd96b84c9cbbbbea1c"
    }
  }, {
    "fullUrl": "Observation/571d00c58bfaa0b922814f1f2bfb644f5b7788958b4cdb9e5b00e802fb5135ad",
    "resource": {
      "resourceType": "Observation",
      "id": "571d00c58bfaa0b922814f1f2bfb644f5b7788958b4cdb9e5b00e802fb5135ad",
      "meta": {
        "profile": [ "https://www.medizininformatik-initiative.de/fhir/ext/modul-onko/StructureDefinition/mii-pr-onko-allgemeiner-leistungszustand-ecog" ]
      },
      "identifier": [ {
        "system": "https://bzkf.github.io/obds-to-fhir/identifiers/allgemeiner-leistungszustand-ecog-id",
        "value": "ECOG-10_1_VE-2"
      } ],
      "status": "final",
      "code": {
        "coding": [ {
          "system": "http://snomed.info/sct",
          "version": "http://snomed.info/sct/900000000000207008/version/20250501",
          "code": "423740007",
          "display": "Eastern Cooperative Oncology Group performance status (observable entity)"
        } ]
      },
      "subject": {
        "reference": "Patient/a02e16474896f1d528cac71f2c9b4c45ac3c9028e3a53fb414a1f7882991ee07"
      },
      "focus": [ {
        "reference": "Condition/ac3a7f7cb463b585fefa6c8135a98c84c3f1a025caf269a122b78de52545d0e8"
      } ],
      "effectiveDateTime": "2021-12-02",
      "valueCodeableConcept": {
        "coding": [ {
          "system": "https://www.medizininformatik-initiative.de/fhir/ext/modul-onko/CodeSystem/mii-cs-onko-allgemeiner-leistungszustand-ecog",
          "code": "4",
          "display": "Völlig pflegebedürftig, keinerlei Selbstversorgung möglich; völlig an Bett oder Stuhl gebunden (10 - 20 % nach Karnofsky)"
        } ]
      }
    },
    "request": {
      "method": "PUT",
      "url": "Observation/571d00c58bfaa0b922814f1f2bfb644f5b7788958b4cdb9e5b00e802fb5135ad"
    }
  }, {
    "fullUrl": "Observation/e28521d56d64d352b2399cd15a6fd19af5e9e5bd11339cfe1bb228d89907b9d4",
    "resource": {
      "resourceType": "Observation",
      "id": "e28521d56d64d352b2399cd15a6fd19af5e9e5bd11339cfe1bb228d89907b9d4",
      "meta": {
        "profile": [ "https://www.medizininformatik-initiative.de/fhir/ext/modul-onko/StructureDefinition/mii-pr-onko-tod" ]
      },
      "identifier": [ {
        "system": "https://bzkf.github.io/obds-to-fhir/identifiers/tod-observation-id",
        "value": "161-C50-9"
      } ],
      "status": "final",
      "code": {
        "coding": [ {
          "system": "http://snomed.info/sct",
          "version": "http://snomed.info/sct/900000000000207008/version/20250501",
          "code": "184305005",
          "display": "Cause of death (observable entity)"
        } ]
      },
      "subject": {
        "reference": "Patient/a02e16474896f1d528cac71f2c9b4c45ac3c9028e3a53fb414a1f7882991ee07"
      },
      "focus": [ {
        "reference": "Condition/ac3a7f7cb463b585fefa6c8135a98c84c3f1a025caf269a122b78de52545d0e8"
      } ],
      "effectiveDateTime": "2022-08-01",
      "valueCodeableConcept": {
        "coding": [ {
          "system": "http://fhir.de/CodeSystem/bfarm/icd-10-gm",
          "version": "2020",
          "code": "C50.9"
        } ]
      },
      "interpretation": [ {
        "coding": [ {
          "system": "https://www.medizininformatik-initiative.de/fhir/ext/modul-onko/CodeSystem/mii-cs-onko-tod",
          "code": "J"
        } ]
      } ]
    },
    "request": {
      "method": "PUT",
      "url": "Observation/e28521d56d64d352b2399cd15a6fd19af5e9e5bd11339cfe1bb228d89907b9d4"
    }
  }, {
    "fullUrl": "Observation/ebe0468d56dc7c9aa380db860cc772c847f58c082eef47450652571a31093aef",
    "resource": {
      "resourceType": "Observation",
      "id": "ebe0468d56dc7c9aa380db860cc772c847f58c082eef47450652571a31093aef",
      "meta": {
        "profile": [ "https://www.medizininformatik-initiative.de/fhir/ext/modul-onko/StructureDefinition/mii-pr-onko-tod" ]
      },
      "identifier": [ {
        "system": "https://bzkf.github.io/obds-to-fhir/identifiers/tod-observation-id",
        "value": "161-T57-3"
      } ],
      "status": "final",
      "code": {
        "coding": [ {
          "system": "http://snomed.info/sct",
          "version": "http://snomed.info/sct/900000000000207008/version/20250501",
          "code": "184305005",
          "display": "Cause of death (observable entity)"
        } ]
      },
      "subject": {
        "reference": "Patient/a02e16474896f1d528cac71f2c9b4c45ac3c9028e3a53fb414a1f7882991ee07"
      },
      "focus": [ {
        "reference": "Condition/ac3a7f7cb463b585fefa6c8135a98c84c3f1a025caf269a122b78de52545d0e8"
      } ],
      "effectiveDateTime": "2022-08-01",
      "valueCodeableConcept": {
        "coding": [ {
          "system": "http://fhir.de/CodeSystem/bfarm/icd-10-gm",
          "version": "2020",
          "code": "T57.3"
        } ]
      },
      "interpretation": [ {
        "coding": [ {
          "system": "https://www.medizininformatik-initiative.de/fhir/ext/modul-onko/CodeSystem/mii-cs-onko-tod",
          "code": "J"
        } ]
      } ]
    },
    "request": {
      "method": "PUT",
      "url": "Observation/ebe0468d56dc7c9aa380db860cc772c847f58c082eef47450652571a31093aef"
    }
  }, {
    "fullUrl": "Condition/c2eac4883aff7ae930c1db652631ea28bd77668faa78bc20a7c18f03f1dddc09",
    "resource": {
      "resourceType": "Condition",
      "id": "c2eac4883aff7ae930c1db652631ea28bd77668faa78bc20a7c18f03f1dddc09",
      "meta": {
        "profile": [ "https://www.medizininformatik-initiative.de/fhir/ext/modul-onko/StructureDefinition/mii-pr-onko-diagnose-primaertumor" ]
      },
      "extension": [ {
        "url": "https://www.medizininformatik-initiative.de/fhir/ext/modul-onko/StructureDefinition/mii-ex-onko-histology-morphology-behavior-icdo3",
        "valueCodeableConcept": {
          "coding": [ {
            "system": "http://terminology.hl7.org/CodeSystem/icd-o-3",
            "version": "33",
            "code": "8010/3"
          } ]
        }
      }, {
        "url": "http://hl7.org/fhir/StructureDefinition/condition-assertedDate",
        "valueDateTime": "2020-01-01"
      } ],
      "identifier": [ {
        "system": "https://bzkf.github.io/obds-to-fhir/identifiers/primaerdiagnose-id",
        "value": "10-102"
      } ],
      "verificationStatus": {
        "coding": [ {
          "system": "http://terminology.hl7.org/CodeSystem/condition-ver-status",
          "code": "confirmed"
        }, {
          "system": "https://www.medizininformatik-initiative.de/fhir/ext/modul-onko/CodeSystem/mii-cs-onko-primaertumor-diagnosesicherung",
          "code": "7"
        } ]
      },
      "code": {
        "coding": [ {
          "system": "http://fhir.de/CodeSystem/bfarm/icd-10-gm",
          "version": "2020",
          "code": "C20"
        } ]
      },
      "bodySite": [ {
        "coding": [ {
          "system": "http://terminology.hl7.org/CodeSystem/icd-o-3",
          "version": "33",
          "code": "C20.9"
        } ],
        "text": "Rektum"
      }, {
        "coding": [ {
          "system": "https://www.medizininformatik-initiative.de/fhir/ext/modul-onko/CodeSystem/mii-cs-onko-seitenlokalisation",
          "code": "T"
        }, {
          "system": "http://snomed.info/sct",
          "version": "http://snomed.info/sct/900000000000207008/version/20250501",
          "code": "385432009",
          "display": "Not applicable (qualifier value)"
        } ]
      } ],
      "subject": {
        "reference": "Patient/a02e16474896f1d528cac71f2c9b4c45ac3c9028e3a53fb414a1f7882991ee07"
      },
      "recordedDate": "2024-09-19",
      "evidence": [ {
        "detail": [ {
          "reference": "List/e5e5552bba684d718c523f91780048c6e7851a3948985fcac56ef6781bca1700"
        } ]
      } ]
    },
    "request": {
      "method": "PUT",
      "url": "Condition/c2eac4883aff7ae930c1db652631ea28bd77668faa78bc20a7c18f03f1dddc09"
    }
  }, {
    "fullUrl": "Procedure/51890ce8d550a0880571a89cc2901ce59a55153b2f75458cd389de61c3ded359",
    "resource": {
      "resourceType": "Procedure",
      "id": "51890ce8d550a0880571a89cc2901ce59a55153b2f75458cd389de61c3ded359",
      "meta": {
        "profile": [ "https://www.medizininformatik-initiative.de/fhir/ext/modul-onko/StructureDefinition/mii-pr-onko-operation" ]
      },
      "extension": [ {
        "url": "https://www.medizininformatik-initiative.de/fhir/ext/modul-onko/StructureDefinition/mii-ex-onko-operation-intention",
        "valueCodeableConcept": {
          "coding": [ {
            "system": "https://www.medizininformatik-initiative.de/fhir/ext/modul-onko/CodeSystem/mii-cs-onko-intention",
            "code": "K"
          } ]
        }
      } ],
      "identifier": [ {
        "system": "https://bzkf.github.io/obds-to-fhir/identifiers/operation-procedure-id",
        "value": "302-5-484-55"
      } ],
      "status": "completed",
      "category": {
        "coding": [ {
          "system": "http://snomed.info/sct",
          "version": "http://snomed.info/sct/900000000000207008/version/20250501",
          "code": "387713003",
          "display": "Surgical procedure"
        } ]
      },
      "code": {
        "coding": [ {
          "system": "http://fhir.de/CodeSystem/bfarm/ops",
          "version": "2020",
          "code": "5-484.55"
        } ]
      },
      "subject": {
        "reference": "Patient/a02e16474896f1d528cac71f2c9b4c45ac3c9028e3a53fb414a1f7882991ee07"
      },
      "performedDateTime": "2020-02-01",
      "reasonReference": [ {
        "reference": "Condition/c2eac4883aff7ae930c1db652631ea28bd77668faa78bc20a7c18f03f1dddc09"
      } ],
      "outcome": {
        "coding": [ {
          "system": "https://www.medizininformatik-initiative.de/fhir/ext/modul-onko/CodeSystem/mii-cs-onko-residualstatus",
          "code": "R0"
        } ]
      }
    },
    "request": {
      "method": "PUT",
      "url": "Procedure/51890ce8d550a0880571a89cc2901ce59a55153b2f75458cd389de61c3ded359"
    }
  }, {
    "fullUrl": "Observation/fbe8bd4ee5604df9f3149618851a9935bbee3e95bc4cdeac769ab12fff143e2f",
    "resource": {
      "resourceType": "Observation",
      "id": "fbe8bd4ee5604df9f3149618851a9935bbee3e95bc4cdeac769ab12fff143e2f",
      "identifier": [ {
        "system": "https://bzkf.github.io/obds-to-fhir/identifiers/residualstatus-observation-id",
        "value": "302"
      } ],
      "status": "final",
      "code": {
        "coding": [ {
          "system": "http://loinc.org",
          "version": "2.80",
          "code": "84892-9",
          "display": "Residual tumor classification [Type] in Cancer specimen"
        } ]
      },
      "subject": {
        "reference": "Patient/a02e16474896f1d528cac71f2c9b4c45ac3c9028e3a53fb414a1f7882991ee07"
      },
      "focus": [ {
        "reference": "Condition/c2eac4883aff7ae930c1db652631ea28bd77668faa78bc20a7c18f03f1dddc09"
      } ],
      "effectiveDateTime": "2020-02-01",
      "valueCodeableConcept": {
        "coding": [ {
          "system": "https://www.medizininformatik-initiative.de/fhir/ext/modul-onko/CodeSystem/mii-cs-onko-residualstatus",
          "code": "R2"
        } ]
      }
    },
    "request": {
      "method": "PUT",
      "url": "Observation/fbe8bd4ee5604df9f3149618851a9935bbee3e95bc4cdeac769ab12fff143e2f"
    }
  }, {
    "fullUrl": "Observation/1bc94a47496fb6859362b98531eba79e1abb626f29eee1e991bbf1b7090495e6",
    "resource": {
      "resourceType": "Observation",
      "id": "1bc94a47496fb6859362b98531eba79e1abb626f29eee1e991bbf1b7090495e6",
      "meta": {
        "profile": [ "https://www.medizininformatik-initiative.de/fhir/ext/modul-onko/StructureDefinition/mii-pr-onko-tnm-t-kategorie" ]
      },
      "identifier": [ {
        "system": "https://bzkf.github.io/obds-to-fhir/identifiers/tnm-t-kategorie-observation-id",
        "value": "485-T"
      } ],
      "status": "final",
      "code": {
        "extension": [ {
          "url": "https://www.medizininformatik-initiative.de/fhir/ext/modul-onko/StructureDefinition/mii-ex-onko-tnm-cp-praefix",
          "valueCodeableConcept": {
            "coding": [ {
              "system": "https://www.uicc.org/resources/tnm",
              "code": "p"
            } ]
          }
        } ],
        "coding": [ {
          "system": "http://snomed.info/sct",
          "version": "http://snomed.info/sct/900000000000207008/version/20250501",
          "code": "384625004",
          "display": "pT category (observable entity)"
        } ]
      },
      "subject": {
        "reference": "Patient/a02e16474896f1d528cac71f2c9b4c45ac3c9028e3a53fb414a1f7882991ee07"
      },
      "focus": [ {
        "reference": "Condition/c2eac4883aff7ae930c1db652631ea28bd77668faa78bc20a7c18f03f1dddc09"
      } ],
      "effectiveDateTime": "2020-02-01",
      "valueCodeableConcept": {
        "coding": [ {
          "system": "https://www.uicc.org/resources/tnm",
          "code": "T1"
        } ]
      },
      "method": {
        "coding": [ {
          "system": "https://www.medizininformatik-initiative.de/fhir/ext/modul-onko/CodeSystem/mii-cs-onko-tnm-version",
          "code": "8"
        } ]
      }
    },
    "request": {
      "method": "PUT",
      "url": "Observation/1bc94a47496fb6859362b98531eba79e1abb626f29eee1e991bbf1b7090495e6"
    }
  }, {
    "fullUrl": "Observation/e3d0525ade526715233adc04df30183bd9691d704773145281888c489f7d13e2",
    "resource": {
      "resourceType": "Observation",
      "id": "e3d0525ade526715233adc04df30183bd9691d704773145281888c489f7d13e2",
      "meta": {
        "profile": [ "https://www.medizininformatik-initiative.de/fhir/ext/modul-onko/StructureDefinition/mii-pr-onko-tnm-y-symbol" ]
      },
      "identifier": [ {
        "system": "https://bzkf.github.io/obds-to-fhir/identifiers/tnm-y-symbol-observation-id",
        "value": "485-y"
      } ],
      "status": "final",
      "code": {
        "coding": [ {
          "system": "http://loinc.org",
          "version": "2.80",
          "code": "101658-3"
        } ]
      },
      "subject": {
        "reference": "Patient/a02e16474896f1d528cac71f2c9b4c45ac3c9028e3a53fb414a1f7882991ee07"
      },
      "focus": [ {
        "reference": "Condition/c2eac4883aff7ae930c1db652631ea28bd77668faa78bc20a7c18f03f1dddc09"
      } ],
      "effectiveDateTime": "2020-02-01",
      "valueCodeableConcept": {
        "coding": [ {
          "system": "http://snomed.info/sct",
          "version": "http://snomed.info/sct/900000000000207008/version/20250501",
          "code": "421755005"
        } ]
      },
      "method": {
        "coding": [ {
          "system": "https://www.medizininformatik-initiative.de/fhir/ext/modul-onko/CodeSystem/mii-cs-onko-tnm-version",
          "code": "8"
        } ]
      }
    },
    "request": {
      "method": "PUT",
      "url": "Observation/e3d0525ade526715233adc04df30183bd9691d704773145281888c489f7d13e2"
    }
  }, {
    "fullUrl": "Observation/bf16262583af010dc5d2ed95374c0fb38e0d51b5deab9cf0537bb2c127e837e5",
    "resource": {
      "resourceType": "Observation",
      "id": "bf16262583af010dc5d2ed95374c0fb38e0d51b5deab9cf0537bb2c127e837e5",
      "meta": {
        "profile": [ "https://www.medizininformatik-initiative.de/fhir/ext/modul-onko/StructureDefinition/mii-pr-onko-tnm-klassifikation" ]
      },
      "identifier": [ {
        "system": "https://bzkf.github.io/obds-to-fhir/identifiers/tnm-grouping-observation-id",
        "value": "485"
      } ],
      "status": "final",
      "code": {
        "coding": [ {
          "system": "http://snomed.info/sct",
          "version": "http://snomed.info/sct/900000000000207008/version/20250501",
          "code": "399390009",
          "display": "TNM stage grouping"
        } ]
      },
      "subject": {
        "reference": "Patient/a02e16474896f1d528cac71f2c9b4c45ac3c9028e3a53fb414a1f7882991ee07"
      },
      "focus": [ {
        "reference": "Condition/c2eac4883aff7ae930c1db652631ea28bd77668faa78bc20a7c18f03f1dddc09"
      } ],
      "effectiveDateTime": "2020-02-01",
      "method": {
        "coding": [ {
          "system": "https://www.medizininformatik-initiative.de/fhir/ext/modul-onko/CodeSystem/mii-cs-onko-tnm-version",
          "code": "8"
        } ]
      },
      "hasMember": [ {
        "reference": "Observation/1bc94a47496fb6859362b98531eba79e1abb626f29eee1e991bbf1b7090495e6"
      }, {
        "reference": "Observation/e3d0525ade526715233adc04df30183bd9691d704773145281888c489f7d13e2"
      } ]
    },
    "request": {
      "method": "PUT",
      "url": "Observation/bf16262583af010dc5d2ed95374c0fb38e0d51b5deab9cf0537bb2c127e837e5"
    }
  }, {
    "fullUrl": "Observation/2deb0a1e6805021aac11dd0b28bdf526422e844358c49879ab31a3e807c37e1e",
    "resource": {
      "resourceType": "Observation",
      "id": "2deb0a1e6805021aac11dd0b28bdf526422e844358c49879ab31a3e807c37e1e",
      "meta": {
        "profile": [ "https://www.medizininformatik-initiative.de/fhir/ext/modul-onko/StructureDefinition/mii-pr-onko-verlauf" ]
      },
      "identifier": [ {
        "system": "https://bzkf.github.io/obds-to-fhir/identifiers/observation-verlauf-id",
        "value": "343"
      } ],
      "status": "final",
      "code": {
        "coding": [ {
          "system": "http://snomed.info/sct",
          "version": "http://snomed.info/sct/900000000000207008/version/20250501",
          "code": "396432002",
          "display": "Status of regression of tumor (observable entity)"
        } ]
      },
      "subject": {
        "reference": "Patient/a02e16474896f1d528cac71f2c9b4c45ac3c9028e3a53fb414a1f7882991ee07"
      },
      "focus": [ {
        "reference": "Condition/c2eac4883aff7ae930c1db652631ea28bd77668faa78bc20a7c18f03f1dddc09"
      } ],
      "effectiveDateTime": "2020-12-01",
      "valueCodeableConcept": {
        "coding": [ {
          "system": "https://www.medizininformatik-initiative.de/fhir/ext/modul-onko/CodeSystem/mii-cs-onko-verlauf-gesamtbeurteilung",
          "code": "P",
          "display": "Progression"
        } ]
      },
      "component": [ {
        "code": {
          "coding": [ {
            "system": "http://snomed.info/sct",
            "version": "http://snomed.info/sct/900000000000207008/version/20250501",
            "code": "277062004",
            "display": "Status des Residualtumors"
          } ]
        },
        "valueCodeableConcept": {
          "coding": [ {
            "system": "https://www.medizininformatik-initiative.de/fhir/ext/modul-onko/CodeSystem/mii-cs-onko-verlauf-primaertumor",
            "code": "P",
            "display": "Tumorreste (Residualtumor) Progress"
          } ]
        }
      }, {
        "code": {
          "coding": [ {
            "system": "http://snomed.info/sct",
            "version": "http://snomed.info/sct/900000000000207008/version/20250501",
            "code": "399656008",
            "display": "Status of tumor metastasis to regional lymph nodes (observable entity)"
          } ]
        },
        "valueCodeableConcept": {
          "coding": [ {
            "system": "https://www.medizininformatik-initiative.de/fhir/ext/modul-onko/CodeSystem/mii-cs-onko-verlauf-lymphknoten",
            "code": "K",
            "display": "kein Lymphknotenbefall nachweisbar"
          } ]
        }
      }, {
        "code": {
          "coding": [ {
            "system": "http://snomed.info/sct",
            "version": "http://snomed.info/sct/900000000000207008/version/20250501",
            "code": "399608002",
            "display": "Status of distant metastasis (observable entity)"
          } ]
        },
        "valueCodeableConcept": {
          "coding": [ {
            "system": "https://www.medizininformatik-initiative.de/fhir/ext/modul-onko/CodeSystem/mii-cs-onko-verlauf-fernmetastasen",
            "code": "K",
            "display": "keine Fernmetastasen nachweisbar"
          } ]
        }
      } ]
    },
    "request": {
      "method": "PUT",
      "url": "Observation/2deb0a1e6805021aac11dd0b28bdf526422e844358c49879ab31a3e807c37e1e"
    }
  }, {
    "fullUrl": "Observation/b7fd0086edb8da26c6576729a470599486aac33de3dd0cd1a8396aafd4d2964a",
    "resource": {
      "resourceType": "Observation",
      "id": "b7fd0086edb8da26c6576729a470599486aac33de3dd0cd1a8396aafd4d2964a",
      "meta": {
        "profile": [ "https://www.medizininformatik-initiative.de/fhir/ext/modul-onko/StructureDefinition/mii-pr-onko-allgemeiner-leistungszustand-ecog" ]
      },
      "identifier": [ {
        "system": "https://bzkf.github.io/obds-to-fhir/identifiers/allgemeiner-leistungszustand-ecog-id",
        "value": "ECOG-10_2_VE_1"
      } ],
      "status": "final",
      "code": {
        "coding": [ {
          "system": "http://snomed.info/sct",
          "version": "http://snomed.info/sct/900000000000207008/version/20250501",
          "code": "423740007",
          "display": "Eastern Cooperative Oncology Group performance status (observable entity)"
        } ]
      },
      "subject": {
        "reference": "Patient/a02e16474896f1d528cac71f2c9b4c45ac3c9028e3a53fb414a1f7882991ee07"
      },
      "focus": [ {
        "reference": "Condition/c2eac4883aff7ae930c1db652631ea28bd77668faa78bc20a7c18f03f1dddc09"
      } ],
      "effectiveDateTime": "2020-12-01",
      "valueCodeableConcept": {
        "coding": [ {
          "system": "https://www.medizininformatik-initiative.de/fhir/ext/modul-onko/CodeSystem/mii-cs-onko-allgemeiner-leistungszustand-ecog",
          "code": "0",
          "display": "Normale, uneingeschränkte Aktivität wie vor der Erkrankung (90 - 100 % nach Karnofsky)"
        } ]
      }
    },
    "request": {
      "method": "PUT",
      "url": "Observation/b7fd0086edb8da26c6576729a470599486aac33de3dd0cd1a8396aafd4d2964a"
    }
  }, {
    "fullUrl": "Condition/1fca0b52a6a1f08155ef8472a7bfe560756d9924effa1efc4e6a4765bcbe6762",
    "resource": {
      "resourceType": "Condition",
      "id": "1fca0b52a6a1f08155ef8472a7bfe560756d9924effa1efc4e6a4765bcbe6762",
      "meta": {
        "profile": [ "https://www.medizininformatik-initiative.de/fhir/ext/modul-onko/StructureDefinition/mii-pr-onko-diagnose-primaertumor" ]
      },
      "extension": [ {
        "url": "https://www.medizininformatik-initiative.de/fhir/ext/modul-onko/StructureDefinition/mii-ex-onko-histology-morphology-behavior-icdo3",
        "valueCodeableConcept": {
          "coding": [ {
            "system": "http://terminology.hl7.org/CodeSystem/icd-o-3",
            "version": "33",
            "code": "8720/3"
          } ]
        }
      }, {
        "url": "http://hl7.org/fhir/StructureDefinition/condition-assertedDate",
        "valueDateTime": "2020-03-01"
      } ],
      "identifier": [ {
        "system": "https://bzkf.github.io/obds-to-fhir/identifiers/primaerdiagnose-id",
        "value": "10-103"
      } ],
      "verificationStatus": {
        "coding": [ {
          "system": "http://terminology.hl7.org/CodeSystem/condition-ver-status",
          "code": "confirmed"
        }, {
          "system": "https://www.medizininformatik-initiative.de/fhir/ext/modul-onko/CodeSystem/mii-cs-onko-primaertumor-diagnosesicherung",
          "code": "7"
        } ]
      },
      "code": {
        "coding": [ {
          "system": "http://fhir.de/CodeSystem/bfarm/icd-10-gm",
          "version": "2020",
          "code": "C43.5"
        } ]
      },
      "bodySite": [ {
        "coding": [ {
          "system": "http://terminology.hl7.org/CodeSystem/icd-o-3",
          "version": "33",
          "code": "C44.5"
        } ],
        "text": "Rumpf"
      }, {
        "coding": [ {
          "system": "https://www.medizininformatik-initiative.de/fhir/ext/modul-onko/CodeSystem/mii-cs-onko-seitenlokalisation",
          "code": "T"
        }, {
          "system": "http://snomed.info/sct",
          "version": "http://snomed.info/sct/900000000000207008/version/20250501",
          "code": "385432009",
          "display": "Not applicable (qualifier value)"
        } ]
      } ],
      "subject": {
        "reference": "Patient/a02e16474896f1d528cac71f2c9b4c45ac3c9028e3a53fb414a1f7882991ee07"
      },
      "recordedDate": "2024-09-19",
      "evidence": [ {
        "detail": [ {
          "reference": "List/2787b4369f4673eeaca5c83bd437fb4fac191101a2abd54fd04c061d575124ff"
        } ]
      } ]
    },
    "request": {
      "method": "PUT",
      "url": "Condition/1fca0b52a6a1f08155ef8472a7bfe560756d9924effa1efc4e6a4765bcbe6762"
    }
  }, {
    "fullUrl": "Observation/5ca9065763d0003ca499286e52430112a0ff509bb59a36d83694e921de10bd70",
    "resource": {
      "resourceType": "Observation",
      "id": "5ca9065763d0003ca499286e52430112a0ff509bb59a36d83694e921de10bd70",
      "meta": {
        "profile": [ "https://www.medizininformatik-initiative.de/fhir/ext/modul-onko/StructureDefinition/mii-pr-onko-verlauf" ]
      },
      "identifier": [ {
        "system": "https://bzkf.github.io/obds-to-fhir/identifiers/observation-verlauf-id",
        "value": "344"
      } ],
      "status": "final",
      "code": {
        "coding": [ {
          "system": "http://snomed.info/sct",
          "version": "http://snomed.info/sct/900000000000207008/version/20250501",
          "code": "396432002",
          "display": "Status of regression of tumor (observable entity)"
        } ]
      },
      "subject": {
        "reference": "Patient/a02e16474896f1d528cac71f2c9b4c45ac3c9028e3a53fb414a1f7882991ee07"
      },
      "focus": [ {
        "reference": "Condition/1fca0b52a6a1f08155ef8472a7bfe560756d9924effa1efc4e6a4765bcbe6762"
      } ],
      "effectiveDateTime": "2021-12-15",
      "valueCodeableConcept": {
        "coding": [ {
          "system": "https://www.medizininformatik-initiative.de/fhir/ext/modul-onko/CodeSystem/mii-cs-onko-verlauf-gesamtbeurteilung",
          "code": "P",
          "display": "Progression"
        } ]
      },
      "component": [ {
        "code": {
          "coding": [ {
            "system": "http://snomed.info/sct",
            "version": "http://snomed.info/sct/900000000000207008/version/20250501",
            "code": "277062004",
            "display": "Status des Residualtumors"
          } ]
        },
        "valueCodeableConcept": {
          "coding": [ {
            "system": "https://www.medizininformatik-initiative.de/fhir/ext/modul-onko/CodeSystem/mii-cs-onko-verlauf-primaertumor",
            "code": "P",
            "display": "Tumorreste (Residualtumor) Progress"
          } ]
        }
      }, {
        "code": {
          "coding": [ {
            "system": "http://snomed.info/sct",
            "version": "http://snomed.info/sct/900000000000207008/version/20250501",
            "code": "399656008",
            "display": "Status of tumor metastasis to regional lymph nodes (observable entity)"
          } ]
        },
        "valueCodeableConcept": {
          "coding": [ {
            "system": "https://www.medizininformatik-initiative.de/fhir/ext/modul-onko/CodeSystem/mii-cs-onko-verlauf-lymphknoten",
            "code": "K",
            "display": "kein Lymphknotenbefall nachweisbar"
          } ]
        }
      }, {
        "code": {
          "coding": [ {
            "system": "http://snomed.info/sct",
            "version": "http://snomed.info/sct/900000000000207008/version/20250501",
            "code": "399608002",
            "display": "Status of distant metastasis (observable entity)"
          } ]
        },
        "valueCodeableConcept": {
          "coding": [ {
            "system": "https://www.medizininformatik-initiative.de/fhir/ext/modul-onko/CodeSystem/mii-cs-onko-verlauf-fernmetastasen",
            "code": "K",
            "display": "keine Fernmetastasen nachweisbar"
          } ]
        }
      } ]
    },
    "request": {
      "method": "PUT",
      "url": "Observation/5ca9065763d0003ca499286e52430112a0ff509bb59a36d83694e921de10bd70"
    }
  }, {
    "fullUrl": "Observation/9f15623e280f9fd3ded3abf724026c23236dae872fa38a1534be56a9b8517cfa",
    "resource": {
      "resourceType": "Observation",
      "id": "9f15623e280f9fd3ded3abf724026c23236dae872fa38a1534be56a9b8517cfa",
      "meta": {
        "profile": [ "https://www.medizininformatik-initiative.de/fhir/ext/modul-onko/StructureDefinition/mii-pr-onko-allgemeiner-leistungszustand-ecog" ]
      },
      "identifier": [ {
        "system": "https://bzkf.github.io/obds-to-fhir/identifiers/allgemeiner-leistungszustand-ecog-id",
        "value": "ECOG-10_3_VE_1"
      } ],
      "status": "final",
      "code": {
        "coding": [ {
          "system": "http://snomed.info/sct",
          "version": "http://snomed.info/sct/900000000000207008/version/20250501",
          "code": "423740007",
          "display": "Eastern Cooperative Oncology Group performance status (observable entity)"
        } ]
      },
      "subject": {
        "reference": "Patient/a02e16474896f1d528cac71f2c9b4c45ac3c9028e3a53fb414a1f7882991ee07"
      },
      "focus": [ {
        "reference": "Condition/1fca0b52a6a1f08155ef8472a7bfe560756d9924effa1efc4e6a4765bcbe6762"
      } ],
      "effectiveDateTime": "2021-12-15",
      "valueCodeableConcept": {
        "coding": [ {
          "system": "https://www.medizininformatik-initiative.de/fhir/ext/modul-onko/CodeSystem/mii-cs-onko-allgemeiner-leistungszustand-ecog",
          "code": "0",
          "display": "Normale, uneingeschränkte Aktivität wie vor der Erkrankung (90 - 100 % nach Karnofsky)"
        } ]
      }
    },
    "request": {
      "method": "PUT",
      "url": "Observation/9f15623e280f9fd3ded3abf724026c23236dae872fa38a1534be56a9b8517cfa"
    }
  }, {
    "fullUrl": "Procedure/d384c76caaba134f7c500069474843e53f9fd0ae52f8bebd4bd30e03fc831a56",
    "resource": {
      "resourceType": "Procedure",
      "id": "d384c76caaba134f7c500069474843e53f9fd0ae52f8bebd4bd30e03fc831a56",
      "meta": {
        "profile": [ "https://www.medizininformatik-initiative.de/fhir/ext/modul-onko/StructureDefinition/mii-pr-onko-operation" ]
      },
      "extension": [ {
        "url": "https://www.medizininformatik-initiative.de/fhir/ext/modul-onko/StructureDefinition/mii-ex-onko-operation-intention",
        "valueCodeableConcept": {
          "coding": [ {
            "system": "https://www.medizininformatik-initiative.de/fhir/ext/modul-onko/CodeSystem/mii-cs-onko-intention",
            "code": "K"
          } ]
        }
      } ],
      "identifier": [ {
        "system": "https://bzkf.github.io/obds-to-fhir/identifiers/operation-procedure-id",
        "value": "303-5-894-1"
      } ],
      "status": "completed",
      "category": {
        "coding": [ {
          "system": "http://snomed.info/sct",
          "version": "http://snomed.info/sct/900000000000207008/version/20250501",
          "code": "387713003",
          "display": "Surgical procedure"
        } ]
      },
      "code": {
        "coding": [ {
          "system": "http://fhir.de/CodeSystem/bfarm/ops",
          "version": "2021",
          "code": "5-894.1"
        } ]
      },
      "subject": {
        "reference": "Patient/a02e16474896f1d528cac71f2c9b4c45ac3c9028e3a53fb414a1f7882991ee07"
      },
      "performedDateTime": "2021-12-20",
      "reasonReference": [ {
        "reference": "Condition/1fca0b52a6a1f08155ef8472a7bfe560756d9924effa1efc4e6a4765bcbe6762"
      } ],
      "outcome": {
        "coding": [ {
          "system": "https://www.medizininformatik-initiative.de/fhir/ext/modul-onko/CodeSystem/mii-cs-onko-residualstatus",
          "code": "R0"
        } ]
      }
    },
    "request": {
      "method": "PUT",
      "url": "Procedure/d384c76caaba134f7c500069474843e53f9fd0ae52f8bebd4bd30e03fc831a56"
    }
  }, {
    "fullUrl": "Observation/820a4d15bc65ede836e0b68922b75855e9ab63f2ce4b33c39e8796096107b357",
    "resource": {
      "resourceType": "Observation",
      "id": "820a4d15bc65ede836e0b68922b75855e9ab63f2ce4b33c39e8796096107b357",
      "identifier": [ {
        "system": "https://bzkf.github.io/obds-to-fhir/identifiers/residualstatus-observation-id",
        "value": "303"
      } ],
      "status": "final",
      "code": {
        "coding": [ {
          "system": "http://loinc.org",
          "version": "2.80",
          "code": "84892-9",
          "display": "Residual tumor classification [Type] in Cancer specimen"
        } ]
      },
      "subject": {
        "reference": "Patient/a02e16474896f1d528cac71f2c9b4c45ac3c9028e3a53fb414a1f7882991ee07"
      },
      "focus": [ {
        "reference": "Condition/1fca0b52a6a1f08155ef8472a7bfe560756d9924effa1efc4e6a4765bcbe6762"
      } ],
      "effectiveDateTime": "2021-12-20",
      "valueCodeableConcept": {
        "coding": [ {
          "system": "https://www.medizininformatik-initiative.de/fhir/ext/modul-onko/CodeSystem/mii-cs-onko-residualstatus",
          "code": "R2"
        } ]
      }
    },
    "request": {
      "method": "PUT",
      "url": "Observation/820a4d15bc65ede836e0b68922b75855e9ab63f2ce4b33c39e8796096107b357"
    }
  }, {
    "fullUrl": "Observation/6ff37297dfe99bf538549b388e8a9dad85756899519ef6e8e1775da5273bac8d",
    "resource": {
      "resourceType": "Observation",
      "id": "6ff37297dfe99bf538549b388e8a9dad85756899519ef6e8e1775da5273bac8d",
      "meta": {
        "profile": [ "https://www.medizininformatik-initiative.de/fhir/ext/modul-onko/StructureDefinition/mii-pr-onko-allgemeiner-leistungszustand-ecog" ]
      },
      "identifier": [ {
        "system": "https://bzkf.github.io/obds-to-fhir/identifiers/allgemeiner-leistungszustand-ecog-id",
        "value": "ECOG-10_1_DI_1"
      } ],
      "status": "final",
      "code": {
        "coding": [ {
          "system": "http://snomed.info/sct",
          "version": "http://snomed.info/sct/900000000000207008/version/20250501",
          "code": "423740007",
          "display": "Eastern Cooperative Oncology Group performance status (observable entity)"
        } ]
      },
      "subject": {
        "reference": "Patient/a02e16474896f1d528cac71f2c9b4c45ac3c9028e3a53fb414a1f7882991ee07"
      },
      "focus": [ {
        "reference": "Condition/ac3a7f7cb463b585fefa6c8135a98c84c3f1a025caf269a122b78de52545d0e8"
      } ],
      "effectiveDateTime": "2020-03-01",
      "valueCodeableConcept": {
        "coding": [ {
          "system": "https://www.medizininformatik-initiative.de/fhir/ext/modul-onko/CodeSystem/mii-cs-onko-allgemeiner-leistungszustand-ecog",
          "code": "1",
          "display": "Einschränkung bei körperlicher Anstrengung, aber gehfähig; leichte körperliche Arbeit bzw. Arbeit im Sitzen (z. B. leichte Hausarbeit oder Büroarbeit) möglich (70 - 80 % nach Karnofsky)"
        } ]
      }
    },
    "request": {
      "method": "PUT",
      "url": "Observation/6ff37297dfe99bf538549b388e8a9dad85756899519ef6e8e1775da5273bac8d"
    }
  }, {
    "fullUrl": "Observation/ce9ac4ea209e8287513499093af316c9a589459a575f7fa6c4499530ceaed1da",
    "resource": {
      "resourceType": "Observation",
      "id": "ce9ac4ea209e8287513499093af316c9a589459a575f7fa6c4499530ceaed1da",
      "meta": {
        "profile": [ "https://www.medizininformatik-initiative.de/fhir/ext/modul-onko/StructureDefinition/mii-pr-onko-fernmetastasen" ]
      },
      "identifier": [ {
        "system": "https://bzkf.github.io/obds-to-fhir/identifiers/fernmetastasen-id",
        "value": "10_1_DI_1-Diagnose-0"
      } ],
      "status": "final",
      "code": {
        "coding": [ {
          "system": "http://snomed.info/sct",
          "version": "http://snomed.info/sct/900000000000207008/version/20250501",
          "code": "385421009",
          "display": "Anatomic location of metastatic spread of malignant neoplasm (observable entity)"
        } ]
      },
      "subject": {
        "reference": "Patient/a02e16474896f1d528cac71f2c9b4c45ac3c9028e3a53fb414a1f7882991ee07"
      },
      "focus": [ {
        "reference": "Condition/ac3a7f7cb463b585fefa6c8135a98c84c3f1a025caf269a122b78de52545d0e8"
      } ],
      "effectiveDateTime": "2020-03-01",
      "valueCodeableConcept": {
        "coding": [ {
          "system": "https://www.medizininformatik-initiative.de/fhir/ext/modul-onko/CodeSystem/mii-cs-onko-fernmetastasen",
          "code": "OSS"
        } ]
      }
    },
    "request": {
      "method": "PUT",
      "url": "Observation/ce9ac4ea209e8287513499093af316c9a589459a575f7fa6c4499530ceaed1da"
    }
  }, {
    "fullUrl": "Specimen/fd0a202eb1bf417fe7e7e5b64f4ce312dad44cfd402d919c8d8861031e54b2b9",
    "resource": {
      "resourceType": "Specimen",
      "id": "fd0a202eb1bf417fe7e7e5b64f4ce312dad44cfd402d919c8d8861031e54b2b9",
      "meta": {
        "profile": [ "https://www.medizininformatik-initiative.de/fhir/ext/modul-onko/StructureDefinition/mii-pr-onko-specimen" ]
      },
      "identifier": [ {
        "system": "https://bzkf.github.io/obds-to-fhir/identifiers/specimen-id",
        "value": "521"
      } ],
      "accessionIdentifier": {
        "value": "X/123456/1"
      },
      "subject": {
        "reference": "Patient/a02e16474896f1d528cac71f2c9b4c45ac3c9028e3a53fb414a1f7882991ee07"
      },
      "collection": {
        "collectedDateTime": "2020-03-05"
      }
    },
    "request": {
      "method": "PUT",
      "url": "Specimen/fd0a202eb1bf417fe7e7e5b64f4ce312dad44cfd402d919c8d8861031e54b2b9"
    }
  }, {
    "fullUrl": "Observation/6ea332d7b46040d412e05087da2ac37440168972e3349691d75f49ef3f749a66",
    "resource": {
      "resourceType": "Observation",
      "id": "6ea332d7b46040d412e05087da2ac37440168972e3349691d75f49ef3f749a66",
      "meta": {
        "profile": [ "https://www.medizininformatik-initiative.de/fhir/ext/modul-onko/StructureDefinition/mii-pr-onko-grading" ]
      },
      "identifier": [ {
        "system": "https://bzkf.github.io/obds-to-fhir/identifiers/grading-observation-id",
        "value": "521-grading"
      } ],
      "status": "final",
      "category": [ {
        "coding": [ {
          "system": "http://terminology.hl7.org/CodeSystem/observation-category",
          "code": "laboratory"
        } ]
      } ],
      "code": {
        "coding": [ {
          "system": "http://loinc.org",
          "version": "2.80",
          "code": "33732-9",
          "display": "Histology grade [Identifier] in Cancer specimen"
        }, {
          "system": "http://snomed.info/sct",
          "version": "http://snomed.info/sct/900000000000207008/version/20250501",
          "code": "371469007",
          "display": "Histologic grade of neoplasm (observable entity)"
        } ]
      },
      "subject": {
        "reference": "Patient/a02e16474896f1d528cac71f2c9b4c45ac3c9028e3a53fb414a1f7882991ee07"
      },
      "focus": [ {
        "reference": "Condition/ac3a7f7cb463b585fefa6c8135a98c84c3f1a025caf269a122b78de52545d0e8"
      } ],
      "effectiveDateTime": "2020-03-05",
      "valueCodeableConcept": {
        "coding": [ {
          "system": "https://www.medizininformatik-initiative.de/fhir/ext/modul-onko/CodeSystem/mii-cs-onko-grading",
          "code": "2"
        } ]
      },
      "specimen": {
        "reference": "Specimen/fd0a202eb1bf417fe7e7e5b64f4ce312dad44cfd402d919c8d8861031e54b2b9"
      }
    },
    "request": {
      "method": "PUT",
      "url": "Observation/6ea332d7b46040d412e05087da2ac37440168972e3349691d75f49ef3f749a66"
    }
  }, {
    "fullUrl": "Observation/95898ef08b006db9d06e491339580666caef1a5f690e1801181e9863abb84a0a",
    "resource": {
      "resourceType": "Observation",
      "id": "95898ef08b006db9d06e491339580666caef1a5f690e1801181e9863abb84a0a",
      "meta": {
        "profile": [ "https://www.medizininformatik-initiative.de/fhir/ext/modul-onko/StructureDefinition/mii-pr-onko-anzahl-befallene-lymphknoten" ]
      },
      "identifier": [ {
        "system": "https://bzkf.github.io/obds-to-fhir/identifiers/observation-histologie-id",
        "value": "521-befallen"
      } ],
      "status": "final",
      "category": [ {
        "coding": [ {
          "system": "http://terminology.hl7.org/CodeSystem/observation-category",
          "code": "laboratory"
        } ]
      } ],
      "code": {
        "coding": [ {
          "system": "http://loinc.org",
          "version": "2.80",
          "code": "21893-3"
        }, {
          "system": "http://snomed.info/sct",
          "version": "http://snomed.info/sct/900000000000207008/version/20250501",
          "code": "443527007"
        } ]
      },
      "subject": {
        "reference": "Patient/a02e16474896f1d528cac71f2c9b4c45ac3c9028e3a53fb414a1f7882991ee07"
      },
      "focus": [ {
        "reference": "Condition/ac3a7f7cb463b585fefa6c8135a98c84c3f1a025caf269a122b78de52545d0e8"
      } ],
      "effectiveDateTime": "2020-03-05",
      "valueQuantity": {
        "value": 2,
        "unit": "#",
        "system": "http://unitsofmeasure.org",
        "code": "1"
      },
      "specimen": {
        "reference": "Specimen/fd0a202eb1bf417fe7e7e5b64f4ce312dad44cfd402d919c8d8861031e54b2b9"
      }
    },
    "request": {
      "method": "PUT",
      "url": "Observation/95898ef08b006db9d06e491339580666caef1a5f690e1801181e9863abb84a0a"
    }
  }, {
    "fullUrl": "Observation/c93451a01a9ddcaccae7d6c078a9100eab597b68d09cd5945cae12fa4a646674",
    "resource": {
      "resourceType": "Observation",
      "id": "c93451a01a9ddcaccae7d6c078a9100eab597b68d09cd5945cae12fa4a646674",
      "meta": {
        "profile": [ "https://www.medizininformatik-initiative.de/fhir/ext/modul-onko/StructureDefinition/mii-pr-onko-anzahl-untersuchte-lymphknoten" ]
      },
      "identifier": [ {
        "system": "https://bzkf.github.io/obds-to-fhir/identifiers/observation-histologie-id",
        "value": "521-untersucht"
      } ],
      "status": "final",
      "category": [ {
        "coding": [ {
          "system": "http://terminology.hl7.org/CodeSystem/observation-category",
          "code": "laboratory"
        } ]
      } ],
      "code": {
        "coding": [ {
          "system": "http://loinc.org",
          "version": "2.80",
          "code": "21894-1"
        }, {
          "system": "http://snomed.info/sct",
          "version": "http://snomed.info/sct/900000000000207008/version/20250501",
          "code": "444025001"
        } ]
      },
      "subject": {
        "reference": "Patient/a02e16474896f1d528cac71f2c9b4c45ac3c9028e3a53fb414a1f7882991ee07"
      },
      "focus": [ {
        "reference": "Condition/ac3a7f7cb463b585fefa6c8135a98c84c3f1a025caf269a122b78de52545d0e8"
      } ],
      "effectiveDateTime": "2020-03-05",
      "valueQuantity": {
        "value": 10,
        "unit": "#",
        "system": "http://unitsofmeasure.org",
        "code": "1"
      },
      "specimen": {
        "reference": "Specimen/fd0a202eb1bf417fe7e7e5b64f4ce312dad44cfd402d919c8d8861031e54b2b9"
      }
    },
    "request": {
      "method": "PUT",
      "url": "Observation/c93451a01a9ddcaccae7d6c078a9100eab597b68d09cd5945cae12fa4a646674"
    }
  }, {
    "fullUrl": "Observation/20d69f09931d79b2c6ff1ef6040221300a3dc996bc9e8d5f076f39e5bb120a98",
    "resource": {
      "resourceType": "Observation",
      "id": "20d69f09931d79b2c6ff1ef6040221300a3dc996bc9e8d5f076f39e5bb120a98",
      "meta": {
        "profile": [ "https://www.medizininformatik-initiative.de/fhir/ext/modul-onko/StructureDefinition/mii-pr-onko-anzahl-befallene-sentinel-lymphknoten" ]
      },
      "identifier": [ {
        "system": "https://bzkf.github.io/obds-to-fhir/identifiers/observation-histologie-id",
        "value": "521-befallen-sentinel"
      } ],
      "status": "final",
      "category": [ {
        "coding": [ {
          "system": "http://terminology.hl7.org/CodeSystem/observation-category",
          "code": "laboratory"
        } ]
      } ],
      "code": {
        "coding": [ {
          "system": "http://loinc.org",
          "version": "2.80",
          "code": "92832-5"
        }, {
          "system": "http://snomed.info/sct",
          "version": "http://snomed.info/sct/900000000000207008/version/20250501",
          "code": "1264491009"
        } ]
      },
      "subject": {
        "reference": "Patient/a02e16474896f1d528cac71f2c9b4c45ac3c9028e3a53fb414a1f7882991ee07"
      },
      "focus": [ {
        "reference": "Condition/ac3a7f7cb463b585fefa6c8135a98c84c3f1a025caf269a122b78de52545d0e8"
      } ],
      "effectiveDateTime": "2020-03-05",
      "valueQuantity": {
        "value": 1,
        "unit": "#",
        "system": "http://unitsofmeasure.org",
        "code": "1"
      },
      "specimen": {
        "reference": "Specimen/fd0a202eb1bf417fe7e7e5b64f4ce312dad44cfd402d919c8d8861031e54b2b9"
      }
    },
    "request": {
      "method": "PUT",
      "url": "Observation/20d69f09931d79b2c6ff1ef6040221300a3dc996bc9e8d5f076f39e5bb120a98"
    }
  }, {
    "fullUrl": "Observation/b0827d2b8067af30583ff64f6befa699d52b6a3d21412bab41a196db9b2bfce9",
    "resource": {
      "resourceType": "Observation",
      "id": "b0827d2b8067af30583ff64f6befa699d52b6a3d21412bab41a196db9b2bfce9",
      "meta": {
        "profile": [ "https://www.medizininformatik-initiative.de/fhir/ext/modul-onko/StructureDefinition/mii-pr-onko-anzahl-untersuchte-sentinel-lymphknoten" ]
      },
      "identifier": [ {
        "system": "https://bzkf.github.io/obds-to-fhir/identifiers/observation-histologie-id",
        "value": "521-untersucht-sentinel"
      } ],
      "status": "final",
      "category": [ {
        "coding": [ {
          "system": "http://terminology.hl7.org/CodeSystem/observation-category",
          "code": "laboratory"
        } ]
      } ],
      "code": {
        "coding": [ {
          "system": "http://loinc.org",
          "version": "2.80",
          "code": "85347-3"
        }, {
          "system": "http://snomed.info/sct",
          "version": "http://snomed.info/sct/900000000000207008/version/20250501",
          "code": "444411008"
        } ]
      },
      "subject": {
        "reference": "Patient/a02e16474896f1d528cac71f2c9b4c45ac3c9028e3a53fb414a1f7882991ee07"
      },
      "focus": [ {
        "reference": "Condition/ac3a7f7cb463b585fefa6c8135a98c84c3f1a025caf269a122b78de52545d0e8"
      } ],
      "effectiveDateTime": "2020-03-05",
      "valueQuantity": {
        "value": 2,
        "unit": "#",
        "system": "http://unitsofmeasure.org",
        "code": "1"
      },
      "specimen": {
        "reference": "Specimen/fd0a202eb1bf417fe7e7e5b64f4ce312dad44cfd402d919c8d8861031e54b2b9"
      }
    },
    "request": {
      "method": "PUT",
      "url": "Observation/b0827d2b8067af30583ff64f6befa699d52b6a3d21412bab41a196db9b2bfce9"
    }
  }, {
    "fullUrl": "Observation/9c3d260ddc4be403de69afe6f1b9ad584096011757220497f198606049afd285",
    "resource": {
      "resourceType": "Observation",
      "id": "9c3d260ddc4be403de69afe6f1b9ad584096011757220497f198606049afd285",
      "meta": {
        "profile": [ "https://www.medizininformatik-initiative.de/fhir/ext/modul-onko/StructureDefinition/mii-pr-onko-studienteilnahme" ]
      },
      "identifier": [ {
        "system": "https://bzkf.github.io/obds-to-fhir/identifiers/studienteilnahme-id",
        "value": "10_1_DI_1-Studienteilnahme"
      } ],
      "status": "final",
      "code": {
        "coding": [ {
          "system": "http://snomed.info/sct",
          "version": "http://snomed.info/sct/900000000000207008/version/20250501",
          "code": "709491003",
          "display": "Enrollment in clinical trial (procedure)"
        } ]
      },
      "subject": {
        "reference": "Patient/a02e16474896f1d528cac71f2c9b4c45ac3c9028e3a53fb414a1f7882991ee07"
      },
      "focus": [ {
        "reference": "Condition/ac3a7f7cb463b585fefa6c8135a98c84c3f1a025caf269a122b78de52545d0e8"
      } ],
      "effectiveDateTime": "2020-03-17",
      "valueCodeableConcept": {
        "coding": [ {
          "system": "https://www.medizininformatik-initiative.de/fhir/ext/modul-onko/CodeSystem/mii-cs-onko-studienteilnahme",
          "code": "J",
          "display": "Ja"
        } ]
      }
    },
    "request": {
      "method": "PUT",
      "url": "Observation/9c3d260ddc4be403de69afe6f1b9ad584096011757220497f198606049afd285"
    }
  }, {
    "fullUrl": "Observation/1025153aa5767fd0283d53d7041afe6ecf8c00a5efba457882fe8e84f6aef0ff",
    "resource": {
      "resourceType": "Observation",
      "id": "1025153aa5767fd0283d53d7041afe6ecf8c00a5efba457882fe8e84f6aef0ff",
      "meta": {
        "profile": [ "https://www.medizininformatik-initiative.de/fhir/ext/modul-onko/StructureDefinition/mii-pr-onko-genetische-variante" ]
      },
      "identifier": [ {
        "system": "https://bzkf.github.io/obds-to-fhir/identifiers/genetische-variante-id",
        "value": "GenetischeAuspraegung-Diagnose-10_1_DI_1-M-0"
      } ],
      "status": "final",
      "category": [ {
        "coding": [ {
          "system": "http://terminology.hl7.org/CodeSystem/observation-category",
          "code": "laboratory",
          "display": "Laboratory"
        } ]
      } ],
      "code": {
        "coding": [ {
          "system": "http://loinc.org",
          "version": "2.80",
          "code": "69548-6",
          "display": "Genetic variant assessment"
        } ]
      },
      "subject": {
        "reference": "Patient/a02e16474896f1d528cac71f2c9b4c45ac3c9028e3a53fb414a1f7882991ee07"
      },
      "focus": [ {
        "reference": "Condition/ac3a7f7cb463b585fefa6c8135a98c84c3f1a025caf269a122b78de52545d0e8"
      } ],
      "effectiveDateTime": "2020-03-01",
      "interpretation": [ {
        "coding": [ {
          "system": "https://www.medizininformatik-initiative.de/fhir/ext/modul-onko/CodeSystem/mii-cs-onko-genetische-variante-auspraegung",
          "code": "M"
        } ]
      } ],
      "note": [ {
        "text": "BRCA 1"
      } ]
    },
    "request": {
      "method": "PUT",
      "url": "Observation/1025153aa5767fd0283d53d7041afe6ecf8c00a5efba457882fe8e84f6aef0ff"
    }
  }, {
    "fullUrl": "Observation/ca47939df9909b458d0439dbc51e362477e686f4d6f38cb4592a55ba96d1eca6",
    "resource": {
      "resourceType": "Observation",
      "id": "ca47939df9909b458d0439dbc51e362477e686f4d6f38cb4592a55ba96d1eca6",
      "meta": {
        "profile": [ "https://www.medizininformatik-initiative.de/fhir/ext/modul-onko/StructureDefinition/mii-pr-onko-genetische-variante" ]
      },
      "identifier": [ {
        "system": "https://bzkf.github.io/obds-to-fhir/identifiers/genetische-variante-id",
        "value": "GenetischeAuspraegung-Diagnose-10_1_DI_1-1"
      } ],
      "status": "final",
      "category": [ {
        "coding": [ {
          "system": "http://terminology.hl7.org/CodeSystem/observation-category",
          "code": "laboratory",
          "display": "Laboratory"
        } ]
      } ],
      "code": {
        "coding": [ {
          "system": "http://loinc.org",
          "version": "2.80",
          "code": "69548-6",
          "display": "Genetic variant assessment"
        } ]
      },
      "subject": {
        "reference": "Patient/a02e16474896f1d528cac71f2c9b4c45ac3c9028e3a53fb414a1f7882991ee07"
      },
      "focus": [ {
        "reference": "Condition/ac3a7f7cb463b585fefa6c8135a98c84c3f1a025caf269a122b78de52545d0e8"
      } ],
      "effectiveDateTime": "2020-03-01",
      "interpretation": [ {
        "coding": [ {
          "system": "https://www.medizininformatik-initiative.de/fhir/ext/modul-onko/CodeSystem/mii-cs-onko-genetische-variante-auspraegung",
          "code": "S"
        } ],
        "text": "Translation"
      } ],
      "note": [ {
        "text": "BRCA 2"
      } ]
    },
    "request": {
      "method": "PUT",
      "url": "Observation/ca47939df9909b458d0439dbc51e362477e686f4d6f38cb4592a55ba96d1eca6"
    }
  }, {
    "fullUrl": "Observation/65b426d0838cd8d9c04bce3d0d78e598576891860fa35f445eae53caa7704cf4",
    "resource": {
      "resourceType": "Observation",
      "id": "65b426d0838cd8d9c04bce3d0d78e598576891860fa35f445eae53caa7704cf4",
      "meta": {
        "profile": [ "https://www.medizininformatik-initiative.de/fhir/ext/modul-onko/StructureDefinition/mii-pr-onko-tnm-t-kategorie" ]
      },
      "identifier": [ {
        "system": "https://bzkf.github.io/obds-to-fhir/identifiers/tnm-t-kategorie-observation-id",
        "value": "481-c-T"
      } ],
      "status": "final",
      "code": {
        "extension": [ {
          "url": "https://www.medizininformatik-initiative.de/fhir/ext/modul-onko/StructureDefinition/mii-ex-onko-tnm-cp-praefix",
          "valueCodeableConcept": {
            "coding": [ {
              "system": "https://www.uicc.org/resources/tnm",
              "code": "c"
            } ]
          }
        } ],
        "coding": [ {
          "system": "http://snomed.info/sct",
          "version": "http://snomed.info/sct/900000000000207008/version/20250501",
          "code": "399504009",
          "display": "cT category (observable entity)"
        } ]
      },
      "subject": {
        "reference": "Patient/a02e16474896f1d528cac71f2c9b4c45ac3c9028e3a53fb414a1f7882991ee07"
      },
      "focus": [ {
        "reference": "Condition/ac3a7f7cb463b585fefa6c8135a98c84c3f1a025caf269a122b78de52545d0e8"
      } ],
      "effectiveDateTime": "2020-03-01",
      "valueCodeableConcept": {
        "coding": [ {
          "system": "https://www.uicc.org/resources/tnm",
          "code": "T2"
        } ]
      },
      "method": {
        "coding": [ {
          "system": "https://www.medizininformatik-initiative.de/fhir/ext/modul-onko/CodeSystem/mii-cs-onko-tnm-version",
          "code": "8"
        } ]
      }
    },
    "request": {
      "method": "PUT",
      "url": "Observation/65b426d0838cd8d9c04bce3d0d78e598576891860fa35f445eae53caa7704cf4"
    }
  }, {
    "fullUrl": "Observation/23bf25bbf040d99755aab7b768dee1955ecd2a625562c74f747b83eca316ae13",
    "resource": {
      "resourceType": "Observation",
      "id": "23bf25bbf040d99755aab7b768dee1955ecd2a625562c74f747b83eca316ae13",
      "meta": {
        "profile": [ "https://www.medizininformatik-initiative.de/fhir/ext/modul-onko/StructureDefinition/mii-pr-onko-tnm-n-kategorie" ]
      },
      "identifier": [ {
        "system": "https://bzkf.github.io/obds-to-fhir/identifiers/tnm-n-kategorie-observation-id",
        "value": "481-c-N"
      } ],
      "status": "final",
      "code": {
        "extension": [ {
          "url": "https://www.medizininformatik-initiative.de/fhir/ext/modul-onko/StructureDefinition/mii-ex-onko-tnm-cp-praefix",
          "valueCodeableConcept": {
            "coding": [ {
              "system": "https://www.uicc.org/resources/tnm",
              "code": "c"
            } ]
          }
        } ],
        "coding": [ {
          "system": "http://snomed.info/sct",
          "version": "http://snomed.info/sct/900000000000207008/version/20250501",
          "code": "399534004",
          "display": "cN category (observable entity)"
        } ]
      },
      "subject": {
        "reference": "Patient/a02e16474896f1d528cac71f2c9b4c45ac3c9028e3a53fb414a1f7882991ee07"
      },
      "focus": [ {
        "reference": "Condition/ac3a7f7cb463b585fefa6c8135a98c84c3f1a025caf269a122b78de52545d0e8"
      } ],
      "effectiveDateTime": "2020-03-01",
      "valueCodeableConcept": {
        "coding": [ {
          "system": "https://www.uicc.org/resources/tnm",
          "code": "N1"
        } ]
      },
      "method": {
        "coding": [ {
          "system": "https://www.medizininformatik-initiative.de/fhir/ext/modul-onko/CodeSystem/mii-cs-onko-tnm-version",
          "code": "8"
        } ]
      }
    },
    "request": {
      "method": "PUT",
      "url": "Observation/23bf25bbf040d99755aab7b768dee1955ecd2a625562c74f747b83eca316ae13"
    }
  }, {
    "fullUrl": "Observation/a167e575c9183085b43542906e958521c4027fc4081c1e97ff337cea5e6325e1",
    "resource": {
      "resourceType": "Observation",
      "id": "a167e575c9183085b43542906e958521c4027fc4081c1e97ff337cea5e6325e1",
      "meta": {
        "profile": [ "https://www.medizininformatik-initiative.de/fhir/ext/modul-onko/StructureDefinition/mii-pr-onko-tnm-m-kategorie" ]
      },
      "identifier": [ {
        "system": "https://bzkf.github.io/obds-to-fhir/identifiers/tnm-m-kategorie-observation-id",
        "value": "481-c-M"
      } ],
      "status": "final",
      "code": {
        "extension": [ {
          "url": "https://www.medizininformatik-initiative.de/fhir/ext/modul-onko/StructureDefinition/mii-ex-onko-tnm-cp-praefix",
          "valueCodeableConcept": {
            "coding": [ {
              "system": "https://www.uicc.org/resources/tnm",
              "code": "c"
            } ]
          }
        } ],
        "coding": [ {
          "system": "http://snomed.info/sct",
          "version": "http://snomed.info/sct/900000000000207008/version/20250501",
          "code": "399387003",
          "display": "cM category (observable entity)"
        } ]
      },
      "subject": {
        "reference": "Patient/a02e16474896f1d528cac71f2c9b4c45ac3c9028e3a53fb414a1f7882991ee07"
      },
      "focus": [ {
        "reference": "Condition/ac3a7f7cb463b585fefa6c8135a98c84c3f1a025caf269a122b78de52545d0e8"
      } ],
      "effectiveDateTime": "2020-03-01",
      "valueCodeableConcept": {
        "coding": [ {
          "system": "https://www.uicc.org/resources/tnm",
          "code": "M1"
        } ]
      },
      "method": {
        "coding": [ {
          "system": "https://www.medizininformatik-initiative.de/fhir/ext/modul-onko/CodeSystem/mii-cs-onko-tnm-version",
          "code": "8"
        } ]
      }
    },
    "request": {
      "method": "PUT",
      "url": "Observation/a167e575c9183085b43542906e958521c4027fc4081c1e97ff337cea5e6325e1"
    }
  }, {
    "fullUrl": "Observation/3054e3bfededc43b8099f2e54ca7e6d1bdfd9af27ccfb3fd1a0f19a2ba004326",
    "resource": {
      "resourceType": "Observation",
      "id": "3054e3bfededc43b8099f2e54ca7e6d1bdfd9af27ccfb3fd1a0f19a2ba004326",
      "meta": {
        "profile": [ "https://www.medizininformatik-initiative.de/fhir/ext/modul-onko/StructureDefinition/mii-pr-onko-tnm-m-symbol" ]
      },
      "identifier": [ {
        "system": "https://bzkf.github.io/obds-to-fhir/identifiers/tnm-m-symbol-observation-id",
        "value": "481-c-m"
      } ],
      "status": "final",
      "code": {
        "coding": [ {
          "system": "http://loinc.org",
          "version": "2.80",
          "code": "42030-7"
        } ]
      },
      "subject": {
        "reference": "Patient/a02e16474896f1d528cac71f2c9b4c45ac3c9028e3a53fb414a1f7882991ee07"
      },
      "focus": [ {
        "reference": "Condition/ac3a7f7cb463b585fefa6c8135a98c84c3f1a025caf269a122b78de52545d0e8"
      } ],
      "effectiveDateTime": "2020-03-01",
      "valueCodeableConcept": {
        "coding": [ {
          "system": "https://www.uicc.org/resources/tnm",
          "code": "m"
        } ]
      },
      "method": {
        "coding": [ {
          "system": "https://www.medizininformatik-initiative.de/fhir/ext/modul-onko/CodeSystem/mii-cs-onko-tnm-version",
          "code": "8"
        } ]
      }
    },
    "request": {
      "method": "PUT",
      "url": "Observation/3054e3bfededc43b8099f2e54ca7e6d1bdfd9af27ccfb3fd1a0f19a2ba004326"
    }
  }, {
    "fullUrl": "Observation/6a2ec4f1d61f831735f3d757573b9f939d4d827fb0e8e812463a56e8cc6692d6",
    "resource": {
      "resourceType": "Observation",
      "id": "6a2ec4f1d61f831735f3d757573b9f939d4d827fb0e8e812463a56e8cc6692d6",
      "meta": {
        "profile": [ "https://www.medizininformatik-initiative.de/fhir/ext/modul-onko/StructureDefinition/mii-pr-onko-tnm-klassifikation" ]
      },
      "identifier": [ {
        "system": "https://bzkf.github.io/obds-to-fhir/identifiers/tnm-grouping-observation-id",
        "value": "481-c"
      } ],
      "status": "final",
      "code": {
        "coding": [ {
          "system": "http://snomed.info/sct",
          "version": "http://snomed.info/sct/900000000000207008/version/20250501",
          "code": "399537006",
          "display": "Clinical TNM stage grouping"
        } ]
      },
      "subject": {
        "reference": "Patient/a02e16474896f1d528cac71f2c9b4c45ac3c9028e3a53fb414a1f7882991ee07"
      },
      "focus": [ {
        "reference": "Condition/ac3a7f7cb463b585fefa6c8135a98c84c3f1a025caf269a122b78de52545d0e8"
      } ],
      "effectiveDateTime": "2020-03-01",
      "valueCodeableConcept": {
        "coding": [ {
          "system": "https://www.uicc.org/resources/tnm",
          "code": "IV",
          "display": "Stadium IV"
        } ]
      },
      "method": {
        "coding": [ {
          "system": "https://www.medizininformatik-initiative.de/fhir/ext/modul-onko/CodeSystem/mii-cs-onko-tnm-version",
          "code": "8"
        } ]
      },
      "hasMember": [ {
        "reference": "Observation/65b426d0838cd8d9c04bce3d0d78e598576891860fa35f445eae53caa7704cf4"
      }, {
        "reference": "Observation/23bf25bbf040d99755aab7b768dee1955ecd2a625562c74f747b83eca316ae13"
      }, {
        "reference": "Observation/a167e575c9183085b43542906e958521c4027fc4081c1e97ff337cea5e6325e1"
      }, {
        "reference": "Observation/3054e3bfededc43b8099f2e54ca7e6d1bdfd9af27ccfb3fd1a0f19a2ba004326"
      } ]
    },
    "request": {
      "method": "PUT",
      "url": "Observation/6a2ec4f1d61f831735f3d757573b9f939d4d827fb0e8e812463a56e8cc6692d6"
    }
  }, {
    "fullUrl": "Observation/48c3102ffe53478e905d80634aa2cf4fb530ae4e4df88b46cbaeeb3e3dacaa3c",
    "resource": {
      "resourceType": "Observation",
      "id": "48c3102ffe53478e905d80634aa2cf4fb530ae4e4df88b46cbaeeb3e3dacaa3c",
      "meta": {
        "profile": [ "https://www.medizininformatik-initiative.de/fhir/ext/modul-onko/StructureDefinition/mii-pr-onko-tnm-t-kategorie" ]
      },
      "identifier": [ {
        "system": "https://bzkf.github.io/obds-to-fhir/identifiers/tnm-t-kategorie-observation-id",
        "value": "482-p-T"
      } ],
      "status": "final",
      "code": {
        "extension": [ {
          "url": "https://www.medizininformatik-initiative.de/fhir/ext/modul-onko/StructureDefinition/mii-ex-onko-tnm-cp-praefix",
          "valueCodeableConcept": {
            "coding": [ {
              "system": "https://www.uicc.org/resources/tnm",
              "code": "p"
            } ]
          }
        } ],
        "coding": [ {
          "system": "http://snomed.info/sct",
          "version": "http://snomed.info/sct/900000000000207008/version/20250501",
          "code": "384625004",
          "display": "pT category (observable entity)"
        } ]
      },
      "subject": {
        "reference": "Patient/a02e16474896f1d528cac71f2c9b4c45ac3c9028e3a53fb414a1f7882991ee07"
      },
      "focus": [ {
        "reference": "Condition/ac3a7f7cb463b585fefa6c8135a98c84c3f1a025caf269a122b78de52545d0e8"
      } ],
      "effectiveDateTime": "2020-03-05",
      "valueCodeableConcept": {
        "coding": [ {
          "system": "https://www.uicc.org/resources/tnm",
          "code": "T2"
        } ]
      },
      "method": {
        "coding": [ {
          "system": "https://www.medizininformatik-initiative.de/fhir/ext/modul-onko/CodeSystem/mii-cs-onko-tnm-version",
          "code": "8"
        } ]
      }
    },
    "request": {
      "method": "PUT",
      "url": "Observation/48c3102ffe53478e905d80634aa2cf4fb530ae4e4df88b46cbaeeb3e3dacaa3c"
    }
  }, {
    "fullUrl": "Observation/e46460e9590d1cb3eeff75bb53194656e4db2d58083b3a83e8eea4d93b0938d8",
    "resource": {
      "resourceType": "Observation",
      "id": "e46460e9590d1cb3eeff75bb53194656e4db2d58083b3a83e8eea4d93b0938d8",
      "meta": {
        "profile": [ "https://www.medizininformatik-initiative.de/fhir/ext/modul-onko/StructureDefinition/mii-pr-onko-tnm-n-kategorie" ]
      },
      "identifier": [ {
        "system": "https://bzkf.github.io/obds-to-fhir/identifiers/tnm-n-kategorie-observation-id",
        "value": "482-p-N"
      } ],
      "status": "final",
      "code": {
        "extension": [ {
          "url": "https://www.medizininformatik-initiative.de/fhir/ext/modul-onko/StructureDefinition/mii-ex-onko-tnm-cp-praefix",
          "valueCodeableConcept": {
            "coding": [ {
              "system": "https://www.uicc.org/resources/tnm",
              "code": "p"
            } ]
          }
        } ],
        "coding": [ {
          "system": "http://snomed.info/sct",
          "version": "http://snomed.info/sct/900000000000207008/version/20250501",
          "code": "371494008",
          "display": "pN category (observable entity)"
        } ]
      },
      "subject": {
        "reference": "Patient/a02e16474896f1d528cac71f2c9b4c45ac3c9028e3a53fb414a1f7882991ee07"
      },
      "focus": [ {
        "reference": "Condition/ac3a7f7cb463b585fefa6c8135a98c84c3f1a025caf269a122b78de52545d0e8"
      } ],
      "effectiveDateTime": "2020-03-05",
      "valueCodeableConcept": {
        "coding": [ {
          "system": "https://www.uicc.org/resources/tnm",
          "code": "N1"
        } ]
      },
      "method": {
        "coding": [ {
          "system": "https://www.medizininformatik-initiative.de/fhir/ext/modul-onko/CodeSystem/mii-cs-onko-tnm-version",
          "code": "8"
        } ]
      }
    },
    "request": {
      "method": "PUT",
      "url": "Observation/e46460e9590d1cb3eeff75bb53194656e4db2d58083b3a83e8eea4d93b0938d8"
    }
  }, {
    "fullUrl": "Observation/3e0a4439e8d3c536787c6a70808286c1b9552090899b40ab5ec2e185ad2534d9",
    "resource": {
      "resourceType": "Observation",
      "id": "3e0a4439e8d3c536787c6a70808286c1b9552090899b40ab5ec2e185ad2534d9",
      "meta": {
        "profile": [ "https://www.medizininformatik-initiative.de/fhir/ext/modul-onko/StructureDefinition/mii-pr-onko-tnm-m-kategorie" ]
      },
      "identifier": [ {
        "system": "https://bzkf.github.io/obds-to-fhir/identifiers/tnm-m-kategorie-observation-id",
        "value": "482-p-M"
      } ],
      "status": "final",
      "code": {
        "extension": [ {
          "url": "https://www.medizininformatik-initiative.de/fhir/ext/modul-onko/StructureDefinition/mii-ex-onko-tnm-cp-praefix",
          "valueCodeableConcept": {
            "coding": [ {
              "system": "https://www.uicc.org/resources/tnm",
              "code": "p"
            } ]
          }
        } ],
        "coding": [ {
          "system": "http://snomed.info/sct",
          "version": "http://snomed.info/sct/900000000000207008/version/20250501",
          "code": "371497001",
          "display": "pM category (observable entity)"
        } ]
      },
      "subject": {
        "reference": "Patient/a02e16474896f1d528cac71f2c9b4c45ac3c9028e3a53fb414a1f7882991ee07"
      },
      "focus": [ {
        "reference": "Condition/ac3a7f7cb463b585fefa6c8135a98c84c3f1a025caf269a122b78de52545d0e8"
      } ],
      "effectiveDateTime": "2020-03-05",
      "valueCodeableConcept": {
        "coding": [ {
          "system": "https://www.uicc.org/resources/tnm",
          "code": "M1"
        } ]
      },
      "method": {
        "coding": [ {
          "system": "https://www.medizininformatik-initiative.de/fhir/ext/modul-onko/CodeSystem/mii-cs-onko-tnm-version",
          "code": "8"
        } ]
      }
    },
    "request": {
      "method": "PUT",
      "url": "Observation/3e0a4439e8d3c536787c6a70808286c1b9552090899b40ab5ec2e185ad2534d9"
    }
  }, {
    "fullUrl": "Observation/102d2433cb08e910ab246a5665d79c1da70938e18cb61fb4d989af1ae782d69b",
    "resource": {
      "resourceType": "Observation",
      "id": "102d2433cb08e910ab246a5665d79c1da70938e18cb61fb4d989af1ae782d69b",
      "meta": {
        "profile": [ "https://www.medizininformatik-initiative.de/fhir/ext/modul-onko/StructureDefinition/mii-pr-onko-tnm-m-symbol" ]
      },
      "identifier": [ {
        "system": "https://bzkf.github.io/obds-to-fhir/identifiers/tnm-m-symbol-observation-id",
        "value": "482-p-m"
      } ],
      "status": "final",
      "code": {
        "coding": [ {
          "system": "http://loinc.org",
          "version": "2.80",
          "code": "42030-7"
        } ]
      },
      "subject": {
        "reference": "Patient/a02e16474896f1d528cac71f2c9b4c45ac3c9028e3a53fb414a1f7882991ee07"
      },
      "focus": [ {
        "reference": "Condition/ac3a7f7cb463b585fefa6c8135a98c84c3f1a025caf269a122b78de52545d0e8"
      } ],
      "effectiveDateTime": "2020-03-05",
      "valueCodeableConcept": {
        "coding": [ {
          "system": "https://www.uicc.org/resources/tnm",
          "code": "3"
        } ]
      },
      "method": {
        "coding": [ {
          "system": "https://www.medizininformatik-initiative.de/fhir/ext/modul-onko/CodeSystem/mii-cs-onko-tnm-version",
          "code": "8"
        } ]
      }
    },
    "request": {
      "method": "PUT",
      "url": "Observation/102d2433cb08e910ab246a5665d79c1da70938e18cb61fb4d989af1ae782d69b"
    }
  }, {
    "fullUrl": "Observation/5554f6a616206a279c1809d1ca25da7bc946e33bf6fa0461566caa6518e16aa5",
    "resource": {
      "resourceType": "Observation",
      "id": "5554f6a616206a279c1809d1ca25da7bc946e33bf6fa0461566caa6518e16aa5",
      "meta": {
        "profile": [ "https://www.medizininformatik-initiative.de/fhir/ext/modul-onko/StructureDefinition/mii-pr-onko-tnm-l-kategorie" ]
      },
      "identifier": [ {
        "system": "https://bzkf.github.io/obds-to-fhir/identifiers/tnm-l-kategorie-observation-id",
        "value": "482-p-L"
      } ],
      "status": "final",
      "code": {
        "coding": [ {
          "system": "http://snomed.info/sct",
          "version": "http://snomed.info/sct/900000000000207008/version/20250501",
          "code": "395715009"
        } ]
      },
      "subject": {
        "reference": "Patient/a02e16474896f1d528cac71f2c9b4c45ac3c9028e3a53fb414a1f7882991ee07"
      },
      "focus": [ {
        "reference": "Condition/ac3a7f7cb463b585fefa6c8135a98c84c3f1a025caf269a122b78de52545d0e8"
      } ],
      "effectiveDateTime": "2020-03-05",
      "valueCodeableConcept": {
        "coding": [ {
          "system": "https://www.uicc.org/resources/tnm",
          "code": "LX"
        } ]
      },
      "method": {
        "coding": [ {
          "system": "https://www.medizininformatik-initiative.de/fhir/ext/modul-onko/CodeSystem/mii-cs-onko-tnm-version",
          "code": "8"
        } ]
      }
    },
    "request": {
      "method": "PUT",
      "url": "Observation/5554f6a616206a279c1809d1ca25da7bc946e33bf6fa0461566caa6518e16aa5"
    }
  }, {
    "fullUrl": "Observation/49e6bb0492d24e370e4d992073c652cea9550d8019f0bbc21c9f5f601b408bb7",
    "resource": {
      "resourceType": "Observation",
      "id": "49e6bb0492d24e370e4d992073c652cea9550d8019f0bbc21c9f5f601b408bb7",
      "meta": {
        "profile": [ "https://www.medizininformatik-initiative.de/fhir/ext/modul-onko/StructureDefinition/mii-pr-onko-tnm-pn-kategorie" ]
      },
      "identifier": [ {
        "system": "https://bzkf.github.io/obds-to-fhir/identifiers/tnm-pn-kategorie-observation-id",
        "value": "482-p-Pn"
      } ],
      "status": "final",
      "code": {
        "coding": [ {
          "system": "http://snomed.info/sct",
          "version": "http://snomed.info/sct/900000000000207008/version/20250501",
          "code": "371513001"
        } ]
      },
      "subject": {
        "reference": "Patient/a02e16474896f1d528cac71f2c9b4c45ac3c9028e3a53fb414a1f7882991ee07"
      },
      "focus": [ {
        "reference": "Condition/ac3a7f7cb463b585fefa6c8135a98c84c3f1a025caf269a122b78de52545d0e8"
      } ],
      "effectiveDateTime": "2020-03-05",
      "valueCodeableConcept": {
        "coding": [ {
          "system": "https://www.uicc.org/resources/tnm",
          "code": "PnX"
        } ]
      },
      "method": {
        "coding": [ {
          "system": "https://www.medizininformatik-initiative.de/fhir/ext/modul-onko/CodeSystem/mii-cs-onko-tnm-version",
          "code": "8"
        } ]
      }
    },
    "request": {
      "method": "PUT",
      "url": "Observation/49e6bb0492d24e370e4d992073c652cea9550d8019f0bbc21c9f5f601b408bb7"
    }
  }, {
    "fullUrl": "Observation/d4122370bc8bd68dde2c9201fd910520df5638447d6dd4182b0830ab50a650ea",
    "resource": {
      "resourceType": "Observation",
      "id": "d4122370bc8bd68dde2c9201fd910520df5638447d6dd4182b0830ab50a650ea",
      "meta": {
        "profile": [ "https://www.medizininformatik-initiative.de/fhir/ext/modul-onko/StructureDefinition/mii-pr-onko-tnm-v-kategorie" ]
      },
      "identifier": [ {
        "system": "https://bzkf.github.io/obds-to-fhir/identifiers/tnm-v-kategorie-observation-id",
        "value": "482-p-V"
      } ],
      "status": "final",
      "code": {
        "coding": [ {
          "system": "http://snomed.info/sct",
          "version": "http://snomed.info/sct/900000000000207008/version/20250501",
          "code": "371493002"
        } ]
      },
      "subject": {
        "reference": "Patient/a02e16474896f1d528cac71f2c9b4c45ac3c9028e3a53fb414a1f7882991ee07"
      },
      "focus": [ {
        "reference": "Condition/ac3a7f7cb463b585fefa6c8135a98c84c3f1a025caf269a122b78de52545d0e8"
      } ],
      "effectiveDateTime": "2020-03-05",
      "valueCodeableConcept": {
        "coding": [ {
          "system": "https://www.uicc.org/resources/tnm",
          "code": "VX"
        } ]
      },
      "method": {
        "coding": [ {
          "system": "https://www.medizininformatik-initiative.de/fhir/ext/modul-onko/CodeSystem/mii-cs-onko-tnm-version",
          "code": "8"
        } ]
      }
    },
    "request": {
      "method": "PUT",
      "url": "Observation/d4122370bc8bd68dde2c9201fd910520df5638447d6dd4182b0830ab50a650ea"
    }
  }, {
    "fullUrl": "Observation/06f7b3acc4c1b094c0dde7a438cf648060d7a96355255c733bec6f71c3883ac0",
    "resource": {
      "resourceType": "Observation",
      "id": "06f7b3acc4c1b094c0dde7a438cf648060d7a96355255c733bec6f71c3883ac0",
      "meta": {
        "profile": [ "https://www.medizininformatik-initiative.de/fhir/ext/modul-onko/StructureDefinition/mii-pr-onko-tnm-klassifikation" ]
      },
      "identifier": [ {
        "system": "https://bzkf.github.io/obds-to-fhir/identifiers/tnm-grouping-observation-id",
        "value": "482-p"
      } ],
      "status": "final",
      "code": {
        "coding": [ {
          "system": "http://snomed.info/sct",
          "version": "http://snomed.info/sct/900000000000207008/version/20250501",
          "code": "399588009",
          "display": "Pathologic TNM stage grouping"
        } ]
      },
      "subject": {
        "reference": "Patient/a02e16474896f1d528cac71f2c9b4c45ac3c9028e3a53fb414a1f7882991ee07"
      },
      "focus": [ {
        "reference": "Condition/ac3a7f7cb463b585fefa6c8135a98c84c3f1a025caf269a122b78de52545d0e8"
      } ],
      "effectiveDateTime": "2020-03-05",
      "valueCodeableConcept": {
        "coding": [ {
          "system": "https://www.uicc.org/resources/tnm",
          "code": "IV",
          "display": "Stadium IV"
        } ]
      },
      "method": {
        "coding": [ {
          "system": "https://www.medizininformatik-initiative.de/fhir/ext/modul-onko/CodeSystem/mii-cs-onko-tnm-version",
          "code": "8"
        } ]
      },
      "hasMember": [ {
        "reference": "Observation/48c3102ffe53478e905d80634aa2cf4fb530ae4e4df88b46cbaeeb3e3dacaa3c"
      }, {
        "reference": "Observation/e46460e9590d1cb3eeff75bb53194656e4db2d58083b3a83e8eea4d93b0938d8"
      }, {
        "reference": "Observation/3e0a4439e8d3c536787c6a70808286c1b9552090899b40ab5ec2e185ad2534d9"
      }, {
        "reference": "Observation/102d2433cb08e910ab246a5665d79c1da70938e18cb61fb4d989af1ae782d69b"
      }, {
        "reference": "Observation/5554f6a616206a279c1809d1ca25da7bc946e33bf6fa0461566caa6518e16aa5"
      }, {
        "reference": "Observation/49e6bb0492d24e370e4d992073c652cea9550d8019f0bbc21c9f5f601b408bb7"
      }, {
        "reference": "Observation/d4122370bc8bd68dde2c9201fd910520df5638447d6dd4182b0830ab50a650ea"
      } ]
    },
    "request": {
      "method": "PUT",
      "url": "Observation/06f7b3acc4c1b094c0dde7a438cf648060d7a96355255c733bec6f71c3883ac0"
    }
  }, {
    "fullUrl": "List/483f7b24cb55c6ac1fb6e384e77182e488eab7ee9c8b7c9200350db806a0b0bb",
    "resource": {
      "resourceType": "List",
      "id": "483f7b24cb55c6ac1fb6e384e77182e488eab7ee9c8b7c9200350db806a0b0bb",
      "meta": {
        "profile": [ "https://www.medizininformatik-initiative.de/fhir/ext/modul-onko/StructureDefinition/mii-pr-onko-liste-evidenz-erstdiagnose" ]
      },
      "identifier": [ {
        "system": "https://bzkf.github.io/obds-to-fhir/identifiers/erstdiagnose-evidenz-list-id",
        "value": "10-101"
      } ],
      "status": "current",
      "mode": "snapshot",
      "subject": {
        "reference": "Patient/a02e16474896f1d528cac71f2c9b4c45ac3c9028e3a53fb414a1f7882991ee07"
      },
      "entry": [ {
        "item": {
          "reference": "Observation/6ff37297dfe99bf538549b388e8a9dad85756899519ef6e8e1775da5273bac8d"
        }
      }, {
        "item": {
          "reference": "Observation/ce9ac4ea209e8287513499093af316c9a589459a575f7fa6c4499530ceaed1da"
        }
      }, {
        "item": {
          "reference": "Specimen/fd0a202eb1bf417fe7e7e5b64f4ce312dad44cfd402d919c8d8861031e54b2b9"
        }
      }, {
        "item": {
          "reference": "Observation/6ea332d7b46040d412e05087da2ac37440168972e3349691d75f49ef3f749a66"
        }
      }, {
        "item": {
          "reference": "Observation/95898ef08b006db9d06e491339580666caef1a5f690e1801181e9863abb84a0a"
        }
      }, {
        "item": {
          "reference": "Observation/c93451a01a9ddcaccae7d6c078a9100eab597b68d09cd5945cae12fa4a646674"
        }
      }, {
        "item": {
          "reference": "Observation/20d69f09931d79b2c6ff1ef6040221300a3dc996bc9e8d5f076f39e5bb120a98"
        }
      }, {
        "item": {
          "reference": "Observation/b0827d2b8067af30583ff64f6befa699d52b6a3d21412bab41a196db9b2bfce9"
        }
      }, {
        "item": {
          "reference": "Observation/9c3d260ddc4be403de69afe6f1b9ad584096011757220497f198606049afd285"
        }
      }, {
        "item": {
          "reference": "Observation/1025153aa5767fd0283d53d7041afe6ecf8c00a5efba457882fe8e84f6aef0ff"
        }
      }, {
        "item": {
          "reference": "Observation/ca47939df9909b458d0439dbc51e362477e686f4d6f38cb4592a55ba96d1eca6"
        }
      }, {
        "item": {
          "reference": "Observation/65b426d0838cd8d9c04bce3d0d78e598576891860fa35f445eae53caa7704cf4"
        }
      }, {
        "item": {
          "reference": "Observation/23bf25bbf040d99755aab7b768dee1955ecd2a625562c74f747b83eca316ae13"
        }
      }, {
        "item": {
          "reference": "Observation/a167e575c9183085b43542906e958521c4027fc4081c1e97ff337cea5e6325e1"
        }
      }, {
        "item": {
          "reference": "Observation/3054e3bfededc43b8099f2e54ca7e6d1bdfd9af27ccfb3fd1a0f19a2ba004326"
        }
      }, {
        "item": {
          "reference": "Observation/6a2ec4f1d61f831735f3d757573b9f939d4d827fb0e8e812463a56e8cc6692d6"
        }
      }, {
        "item": {
          "reference": "Observation/48c3102ffe53478e905d80634aa2cf4fb530ae4e4df88b46cbaeeb3e3dacaa3c"
        }
      }, {
        "item": {
          "reference": "Observation/e46460e9590d1cb3eeff75bb53194656e4db2d58083b3a83e8eea4d93b0938d8"
        }
      }, {
        "item": {
          "reference": "Observation/3e0a4439e8d3c536787c6a70808286c1b9552090899b40ab5ec2e185ad2534d9"
        }
      }, {
        "item": {
          "reference": "Observation/102d2433cb08e910ab246a5665d79c1da70938e18cb61fb4d989af1ae782d69b"
        }
      }, {
        "item": {
          "reference": "Observation/5554f6a616206a279c1809d1ca25da7bc946e33bf6fa0461566caa6518e16aa5"
        }
      }, {
        "item": {
          "reference": "Observation/49e6bb0492d24e370e4d992073c652cea9550d8019f0bbc21c9f5f601b408bb7"
        }
      }, {
        "item": {
          "reference": "Observation/d4122370bc8bd68dde2c9201fd910520df5638447d6dd4182b0830ab50a650ea"
        }
      }, {
        "item": {
          "reference": "Observation/06f7b3acc4c1b094c0dde7a438cf648060d7a96355255c733bec6f71c3883ac0"
        }
      } ]
    },
    "request": {
      "method": "PUT",
      "url": "List/483f7b24cb55c6ac1fb6e384e77182e488eab7ee9c8b7c9200350db806a0b0bb"
    }
  }, {
    "fullUrl": "Observation/7d6cfaae048e593bc9538124062743dc6c1fd2c433854ace4a41fed8a2d5b9a8",
    "resource": {
      "resourceType": "Observation",
      "id": "7d6cfaae048e593bc9538124062743dc6c1fd2c433854ace4a41fed8a2d5b9a8",
      "meta": {
        "profile": [ "https://www.medizininformatik-initiative.de/fhir/ext/modul-onko/StructureDefinition/mii-pr-onko-allgemeiner-leistungszustand-ecog" ]
      },
      "identifier": [ {
        "system": "https://bzkf.github.io/obds-to-fhir/identifiers/allgemeiner-leistungszustand-ecog-id",
        "value": "ECOG-10_2_DI_1"
      } ],
      "status": "final",
      "code": {
        "coding": [ {
          "system": "http://snomed.info/sct",
          "version": "http://snomed.info/sct/900000000000207008/version/20250501",
          "code": "423740007",
          "display": "Eastern Cooperative Oncology Group performance status (observable entity)"
        } ]
      },
      "subject": {
        "reference": "Patient/a02e16474896f1d528cac71f2c9b4c45ac3c9028e3a53fb414a1f7882991ee07"
      },
      "focus": [ {
        "reference": "Condition/c2eac4883aff7ae930c1db652631ea28bd77668faa78bc20a7c18f03f1dddc09"
      } ],
      "effectiveDateTime": "2020-01-01",
      "valueCodeableConcept": {
        "coding": [ {
          "system": "https://www.medizininformatik-initiative.de/fhir/ext/modul-onko/CodeSystem/mii-cs-onko-allgemeiner-leistungszustand-ecog",
          "code": "0",
          "display": "Normale, uneingeschränkte Aktivität wie vor der Erkrankung (90 - 100 % nach Karnofsky)"
        } ]
      }
    },
    "request": {
      "method": "PUT",
      "url": "Observation/7d6cfaae048e593bc9538124062743dc6c1fd2c433854ace4a41fed8a2d5b9a8"
    }
  }, {
    "fullUrl": "List/e5e5552bba684d718c523f91780048c6e7851a3948985fcac56ef6781bca1700",
    "resource": {
      "resourceType": "List",
      "id": "e5e5552bba684d718c523f91780048c6e7851a3948985fcac56ef6781bca1700",
      "meta": {
        "profile": [ "https://www.medizininformatik-initiative.de/fhir/ext/modul-onko/StructureDefinition/mii-pr-onko-liste-evidenz-erstdiagnose" ]
      },
      "identifier": [ {
        "system": "https://bzkf.github.io/obds-to-fhir/identifiers/erstdiagnose-evidenz-list-id",
        "value": "10-102"
      } ],
      "status": "current",
      "mode": "snapshot",
      "subject": {
        "reference": "Patient/a02e16474896f1d528cac71f2c9b4c45ac3c9028e3a53fb414a1f7882991ee07"
      },
      "entry": [ {
        "item": {
          "reference": "Observation/7d6cfaae048e593bc9538124062743dc6c1fd2c433854ace4a41fed8a2d5b9a8"
        }
      } ]
    },
    "request": {
      "method": "PUT",
      "url": "List/e5e5552bba684d718c523f91780048c6e7851a3948985fcac56ef6781bca1700"
    }
  }, {
    "fullUrl": "Observation/9faa00bb7f854297a496a607f353b5e62d1e0b1b8f92a5d3d7abb2a0c045d23e",
    "resource": {
      "resourceType": "Observation",
      "id": "9faa00bb7f854297a496a607f353b5e62d1e0b1b8f92a5d3d7abb2a0c045d23e",
      "meta": {
        "profile": [ "https://www.medizininformatik-initiative.de/fhir/ext/modul-onko/StructureDefinition/mii-pr-onko-allgemeiner-leistungszustand-ecog" ]
      },
      "identifier": [ {
        "system": "https://bzkf.github.io/obds-to-fhir/identifiers/allgemeiner-leistungszustand-ecog-id",
        "value": "ECOG-10_3_DI_1"
      } ],
      "status": "final",
      "code": {
        "coding": [ {
          "system": "http://snomed.info/sct",
          "version": "http://snomed.info/sct/900000000000207008/version/20250501",
          "code": "423740007",
          "display": "Eastern Cooperative Oncology Group performance status (observable entity)"
        } ]
      },
      "subject": {
        "reference": "Patient/a02e16474896f1d528cac71f2c9b4c45ac3c9028e3a53fb414a1f7882991ee07"
      },
      "focus": [ {
        "reference": "Condition/1fca0b52a6a1f08155ef8472a7bfe560756d9924effa1efc4e6a4765bcbe6762"
      } ],
      "effectiveDateTime": "2020-03-01",
      "valueCodeableConcept": {
        "coding": [ {
          "system": "https://www.medizininformatik-initiative.de/fhir/ext/modul-onko/CodeSystem/mii-cs-onko-allgemeiner-leistungszustand-ecog",
          "code": "0",
          "display": "Normale, uneingeschränkte Aktivität wie vor der Erkrankung (90 - 100 % nach Karnofsky)"
        } ]
      }
    },
    "request": {
      "method": "PUT",
      "url": "Observation/9faa00bb7f854297a496a607f353b5e62d1e0b1b8f92a5d3d7abb2a0c045d23e"
    }
  }, {
    "fullUrl": "List/2787b4369f4673eeaca5c83bd437fb4fac191101a2abd54fd04c061d575124ff",
    "resource": {
      "resourceType": "List",
      "id": "2787b4369f4673eeaca5c83bd437fb4fac191101a2abd54fd04c061d575124ff",
      "meta": {
        "profile": [ "https://www.medizininformatik-initiative.de/fhir/ext/modul-onko/StructureDefinition/mii-pr-onko-liste-evidenz-erstdiagnose" ]
      },
      "identifier": [ {
        "system": "https://bzkf.github.io/obds-to-fhir/identifiers/erstdiagnose-evidenz-list-id",
        "value": "10-103"
      } ],
      "status": "current",
      "mode": "snapshot",
      "subject": {
        "reference": "Patient/a02e16474896f1d528cac71f2c9b4c45ac3c9028e3a53fb414a1f7882991ee07"
      },
      "entry": [ {
        "item": {
          "reference": "Observation/9faa00bb7f854297a496a607f353b5e62d1e0b1b8f92a5d3d7abb2a0c045d23e"
        }
      } ]
    },
    "request": {
      "method": "PUT",
      "url": "List/2787b4369f4673eeaca5c83bd437fb4fac191101a2abd54fd04c061d575124ff"
    }
  } ]
}