{
  "resourceType": "Bundle",
  "id": "3919f05c9c061487bab3c8f0c50212061d29d4a31d6709c14955d3e551f9ab6d",
  "type": "transaction",
  "entry": [ {
    "fullUrl": "Patient/3919f05c9c061487bab3c8f0c50212061d29d4a31d6709c14955d3e551f9ab6d",
    "resource": {
      "resourceType": "Patient",
      "id": "3919f05c9c061487bab3c8f0c50212061d29d4a31d6709c14955d3e551f9ab6d",
      "meta": {
        "profile": [ "https://www.medizininformatik-initiative.de/fhir/core/modul-person/StructureDefinition/PatientPseudonymisiert" ]
      },
      "identifier": [ {
        "type": {
          "coding": [ {
            "system": "http://terminology.hl7.org/CodeSystem/v2-0203",
            "code": "MR",
            "display": "Medical record number"
          }, {
            "system": "http://terminology.hl7.org/CodeSystem/v3-ObservationValue",
            "code": "PSEUDED",
            "display": "pseudonymized"
          } ]
        },
        "system": "https://bzkf.github.io/obds-to-fhir/identifiers/patient-id",
        "value": "9876543"
      } ],
      "gender": "female",
      "birthDate": "1960-01-16",
      "address": [ {
        "type": "both",
        "postalCode": "12345",
        "country": "DE"
      } ]
    },
    "request": {
      "method": "PUT",
      "url": "Patient/3919f05c9c061487bab3c8f0c50212061d29d4a31d6709c14955d3e551f9ab6d"
    }
  }, {
    "fullUrl": "Condition/6a8f23897a4ab43af23664a6f42a8ad951db5e548e3817f68a66a6e4d9e02e8e",
    "resource": {
      "resourceType": "Condition",
      "id": "6a8f23897a4ab43af23664a6f42a8ad951db5e548e3817f68a66a6e4d9e02e8e",
      "meta": {
        "profile": [ "https://www.medizininformatik-initiative.de/fhir/ext/modul-onko/StructureDefinition/mii-pr-onko-diagnose-primaertumor" ]
      },
      "extension": [ {
        "url": "https://www.medizininformatik-initiative.de/fhir/ext/modul-onko/StructureDefinition/mii-ex-onko-histology-morphology-behavior-icdo3",
        "valueCodeableConcept": {
          "coding": [ {
            "system": "http://terminology.hl7.org/CodeSystem/icd-o-3",
            "version": "33",
            "code": "8720/3"
          } ]
        }
      }, {
        "url": "http://hl7.org/fhir/StructureDefinition/condition-assertedDate",
        "valueDateTime": "2023-10-11"
      } ],
      "identifier": [ {
        "system": "https://bzkf.github.io/obds-to-fhir/identifiers/primaerdiagnose-id",
        "value": "9876543-1"
      } ],
      "verificationStatus": {
        "coding": [ {
          "system": "http://terminology.hl7.org/CodeSystem/condition-ver-status",
          "code": "confirmed"
        }, {
          "system": "https://www.medizininformatik-initiative.de/fhir/ext/modul-onko/CodeSystem/mii-cs-onko-primaertumor-diagnosesicherung",
          "code": "7"
        } ]
      },
      "code": {
        "coding": [ {
          "system": "http://fhir.de/CodeSystem/bfarm/icd-10-gm",
          "version": "2023",
          "code": "C43.5"
        } ]
      },
      "bodySite": [ {
        "coding": [ {
          "system": "http://terminology.hl7.org/CodeSystem/icd-o-3",
          "version": "33",
          "code": "C44.9"
        } ],
        "text": "Vulva"
      }, {
        "coding": [ {
          "system": "https://www.medizininformatik-initiative.de/fhir/ext/modul-onko/CodeSystem/mii-cs-onko-seitenlokalisation",
          "code": "T"
        }, {
          "system": "http://snomed.info/sct",
          "version": "http://snomed.info/sct/900000000000207008/version/20250501",
          "code": "385432009",
          "display": "Not applicable (qualifier value)"
        } ]
      } ],
      "subject": {
        "reference": "Patient/3919f05c9c061487bab3c8f0c50212061d29d4a31d6709c14955d3e551f9ab6d"
      },
      "recordedDate": "2024-11-30"
    },
    "request": {
      "method": "PUT",
      "url": "Condition/6a8f23897a4ab43af23664a6f42a8ad951db5e548e3817f68a66a6e4d9e02e8e"
    }
  }, {
    "fullUrl": "Observation/f09354f4566cac6966aa4c46dd6984df57cff6d42440e043a0f1e920812d6d07",
    "resource": {
      "resourceType": "Observation",
      "id": "f09354f4566cac6966aa4c46dd6984df57cff6d42440e043a0f1e920812d6d07",
      "meta": {
        "profile": [ "https://www.medizininformatik-initiative.de/fhir/ext/modul-onko/StructureDefinition/mii-pr-onko-allgemeiner-leistungszustand-ecog" ]
      },
      "identifier": [ {
        "system": "https://bzkf.github.io/obds-to-fhir/identifiers/allgemeiner-leistungszustand-ecog-id",
        "value": "ECOG-2103B5C5-123123/12312"
      } ],
      "status": "final",
      "code": {
        "coding": [ {
          "system": "http://snomed.info/sct",
          "version": "http://snomed.info/sct/900000000000207008/version/20250501",
          "code": "423740007",
          "display": "Eastern Cooperative Oncology Group performance status (observable entity)"
        } ]
      },
      "subject": {
        "reference": "Patient/3919f05c9c061487bab3c8f0c50212061d29d4a31d6709c14955d3e551f9ab6d"
      },
      "focus": [ {
        "reference": "Condition/6a8f23897a4ab43af23664a6f42a8ad951db5e548e3817f68a66a6e4d9e02e8e"
      } ],
      "effectiveDateTime": "2023-10-11",
      "valueCodeableConcept": {
        "coding": [ {
          "system": "https://www.medizininformatik-initiative.de/fhir/ext/modul-onko/CodeSystem/mii-cs-onko-allgemeiner-leistungszustand-ecog",
          "code": "U",
          "display": "Unbekannt"
        } ]
      }
    },
    "request": {
      "method": "PUT",
      "url": "Observation/f09354f4566cac6966aa4c46dd6984df57cff6d42440e043a0f1e920812d6d07"
    }
  }, {
    "fullUrl": "Specimen/f7ba1a598b5d7b2fdc092063e5395641449ca5bcd1b81c2ee3fafe98e87fb54a",
    "resource": {
      "resourceType": "Specimen",
      "id": "f7ba1a598b5d7b2fdc092063e5395641449ca5bcd1b81c2ee3fafe98e87fb54a",
      "meta": {
        "profile": [ "https://www.medizininformatik-initiative.de/fhir/ext/modul-onko/StructureDefinition/mii-pr-onko-specimen" ]
      },
      "identifier": [ {
        "system": "https://bzkf.github.io/obds-to-fhir/identifiers/specimen-id"
      } ],
      "subject": {
        "reference": "Patient/3919f05c9c061487bab3c8f0c50212061d29d4a31d6709c14955d3e551f9ab6d"
      }
    },
    "request": {
      "method": "PUT",
      "url": "Specimen/f7ba1a598b5d7b2fdc092063e5395641449ca5bcd1b81c2ee3fafe98e87fb54a"
    }
  }, {
    "fullUrl": "Observation/dd47c6d583e6e0c32f1d99c2f2993d38ece9e75b50c78e96da46f8cb76b01653",
    "resource": {
      "resourceType": "Observation",
      "id": "dd47c6d583e6e0c32f1d99c2f2993d38ece9e75b50c78e96da46f8cb76b01653",
      "meta": {
        "profile": [ "https://www.medizininformatik-initiative.de/fhir/ext/modul-onko/StructureDefinition/mii-pr-onko-histologie-icdo3" ]
      },
      "identifier": [ {
        "system": "https://bzkf.github.io/obds-to-fhir/identifiers/observation-histologie-id",
        "value": "2103B5C5-123123/12312-ICDO3-8720/3"
      } ],
      "status": "final",
      "code": {
        "coding": [ {
          "system": "http://loinc.org",
          "version": "2.80",
          "code": "59847-4",
          "display": "Histology and Behavior ICD-O-3 Cancer"
        } ]
      },
      "subject": {
        "reference": "Patient/3919f05c9c061487bab3c8f0c50212061d29d4a31d6709c14955d3e551f9ab6d"
      },
      "focus": [ {
        "reference": "Condition/6a8f23897a4ab43af23664a6f42a8ad951db5e548e3817f68a66a6e4d9e02e8e"
      } ],
      "valueCodeableConcept": {
        "coding": [ {
          "system": "http://terminology.hl7.org/CodeSystem/icd-o-3",
          "version": "33",
          "code": "8720/3"
        } ]
      },
      "specimen": {
        "reference": "Specimen/f7ba1a598b5d7b2fdc092063e5395641449ca5bcd1b81c2ee3fafe98e87fb54a"
      }
    },
    "request": {
      "method": "PUT",
      "url": "Observation/dd47c6d583e6e0c32f1d99c2f2993d38ece9e75b50c78e96da46f8cb76b01653"
    }
  }, {
    "fullUrl": "Observation/fedff5542f603819f0d040ba5a2117d27cfbefdd81315465d7a388cfcc8b4add",
    "resource": {
      "resourceType": "Observation",
      "id": "fedff5542f603819f0d040ba5a2117d27cfbefdd81315465d7a388cfcc8b4add",
      "meta": {
        "profile": [ "https://www.medizininformatik-initiative.de/fhir/ext/modul-onko/StructureDefinition/mii-pr-onko-histologie-icdo3" ]
      },
      "identifier": [ {
        "system": "https://bzkf.github.io/obds-to-fhir/identifiers/observation-histologie-id",
        "value": "2103B5C5-123123/12312-ICDO3-8720/2"
      } ],
      "status": "final",
      "code": {
        "coding": [ {
          "system": "http://loinc.org",
          "version": "2.80",
          "code": "59847-4",
          "display": "Histology and Behavior ICD-O-3 Cancer"
        } ]
      },
      "subject": {
        "reference": "Patient/3919f05c9c061487bab3c8f0c50212061d29d4a31d6709c14955d3e551f9ab6d"
      },
      "focus": [ {
        "reference": "Condition/6a8f23897a4ab43af23664a6f42a8ad951db5e548e3817f68a66a6e4d9e02e8e"
      } ],
      "valueCodeableConcept": {
        "coding": [ {
          "system": "http://terminology.hl7.org/CodeSystem/icd-o-3",
          "version": "33",
          "code": "8720/2"
        } ]
      },
      "specimen": {
        "reference": "Specimen/f7ba1a598b5d7b2fdc092063e5395641449ca5bcd1b81c2ee3fafe98e87fb54a"
      }
    },
    "request": {
      "method": "PUT",
      "url": "Observation/fedff5542f603819f0d040ba5a2117d27cfbefdd81315465d7a388cfcc8b4add"
    }
  }, {
    "fullUrl": "Observation/8a573e2d3d3493fc5876e2036ffa08ae6f7fd0e59a156a53b6bc6c6403928418",
    "resource": {
      "resourceType": "Observation",
      "id": "8a573e2d3d3493fc5876e2036ffa08ae6f7fd0e59a156a53b6bc6c6403928418",
      "meta": {
        "profile": [ "https://www.medizininformatik-initiative.de/fhir/ext/modul-onko/StructureDefinition/mii-pr-onko-grading" ]
      },
      "identifier": [ {
        "system": "https://bzkf.github.io/obds-to-fhir/identifiers/grading-observation-id",
        "value": "2103B5C5-123123/12312-grading"
      } ],
      "status": "final",
      "category": [ {
        "coding": [ {
          "system": "http://terminology.hl7.org/CodeSystem/observation-category",
          "code": "laboratory"
        } ]
      } ],
      "code": {
        "coding": [ {
          "system": "http://loinc.org",
          "version": "2.80",
          "code": "33732-9",
          "display": "Histology grade [Identifier] in Cancer specimen"
        }, {
          "system": "http://snomed.info/sct",
          "version": "http://snomed.info/sct/900000000000207008/version/20250501",
          "code": "371469007",
          "display": "Histologic grade of neoplasm (observable entity)"
        } ]
      },
      "subject": {
        "reference": "Patient/3919f05c9c061487bab3c8f0c50212061d29d4a31d6709c14955d3e551f9ab6d"
      },
      "focus": [ {
        "reference": "Condition/6a8f23897a4ab43af23664a6f42a8ad951db5e548e3817f68a66a6e4d9e02e8e"
      } ],
      "_effectiveDateTime": {
        "extension": [ {
          "url": "http://hl7.org/fhir/StructureDefinition/data-absent-reason",
          "valueCode": "unknown"
        } ]
      },
      "valueCodeableConcept": {
        "coding": [ {
          "system": "https://www.medizininformatik-initiative.de/fhir/ext/modul-onko/CodeSystem/mii-cs-onko-grading",
          "code": "U"
        } ]
      },
      "specimen": {
        "reference": "Specimen/f7ba1a598b5d7b2fdc092063e5395641449ca5bcd1b81c2ee3fafe98e87fb54a"
      }
    },
    "request": {
      "method": "PUT",
      "url": "Observation/8a573e2d3d3493fc5876e2036ffa08ae6f7fd0e59a156a53b6bc6c6403928418"
    }
  }, {
    "fullUrl": "Observation/930e610e16b6a8a72f86895036be0bd1de30997686f0bbd9f6eff5e807c199ba",
    "resource": {
      "resourceType": "Observation",
      "id": "930e610e16b6a8a72f86895036be0bd1de30997686f0bbd9f6eff5e807c199ba",
      "meta": {
        "profile": [ "https://www.medizininformatik-initiative.de/fhir/ext/modul-onko/StructureDefinition/mii-pr-onko-studienteilnahme" ]
      },
      "identifier": [ {
        "system": "https://bzkf.github.io/obds-to-fhir/identifiers/studienteilnahme-id",
        "value": "2103B5C5-123123/12312_Studienteilnahme"
      } ],
      "status": "final",
      "code": {
        "coding": [ {
          "system": "http://snomed.info/sct",
          "version": "http://snomed.info/sct/900000000000207008/version/20250501",
          "code": "709491003",
          "display": "Enrollment in clinical trial (procedure)"
        } ]
      },
      "subject": {
        "reference": "Patient/3919f05c9c061487bab3c8f0c50212061d29d4a31d6709c14955d3e551f9ab6d"
      },
      "focus": [ {
        "reference": "Condition/6a8f23897a4ab43af23664a6f42a8ad951db5e548e3817f68a66a6e4d9e02e8e"
      } ],
      "valueCodeableConcept": {
        "coding": [ {
          "system": "https://www.medizininformatik-initiative.de/fhir/ext/modul-onko/CodeSystem/mii-cs-onko-studienteilnahme",
          "code": "N"
        } ]
      }
    },
    "request": {
      "method": "PUT",
      "url": "Observation/930e610e16b6a8a72f86895036be0bd1de30997686f0bbd9f6eff5e807c199ba"
    }
  }, {
    "fullUrl": "Observation/4bb3356d1ff043390af6b3212969ae3b91ccb5d345e74a577fa65102851fba5d",
    "resource": {
      "resourceType": "Observation",
      "id": "4bb3356d1ff043390af6b3212969ae3b91ccb5d345e74a577fa65102851fba5d",
      "meta": {
        "profile": [ "https://www.medizininformatik-initiative.de/fhir/ext/modul-onko/StructureDefinition/mii-pr-onko-tnm-t-kategorie" ]
      },
      "identifier": [ {
        "system": "https://bzkf.github.io/obds-to-fhir/identifiers/tnm-t-kategorie-observation-id",
        "value": "4444888c-c_T"
      } ],
      "status": "final",
      "code": {
        "extension": [ {
          "url": "https://www.medizininformatik-initiative.de/fhir/ext/modul-onko/StructureDefinition/mii-ex-onko-tnm-cp-praefix",
          "valueCodeableConcept": {
            "coding": [ {
              "system": "https://www.uicc.org/resources/tnm",
              "code": "p"
            } ]
          }
        } ],
        "coding": [ {
          "system": "http://snomed.info/sct",
          "version": "http://snomed.info/sct/900000000000207008/version/20250501",
          "code": "384625004",
          "display": "pT category (observable entity)"
        } ]
      },
      "subject": {
        "reference": "Patient/3919f05c9c061487bab3c8f0c50212061d29d4a31d6709c14955d3e551f9ab6d"
      },
      "focus": [ {
        "reference": "Condition/6a8f23897a4ab43af23664a6f42a8ad951db5e548e3817f68a66a6e4d9e02e8e"
      } ],
      "effectiveDateTime": "2024-02-09",
      "valueCodeableConcept": {
        "coding": [ {
          "system": "https://www.uicc.org/resources/tnm",
          "code": "T2b"
        } ]
      },
      "method": {
        "coding": [ {
          "system": "https://www.medizininformatik-initiative.de/fhir/ext/modul-onko/CodeSystem/mii-cs-onko-tnm-version",
          "code": "8"
        } ]
      }
    },
    "request": {
      "method": "PUT",
      "url": "Observation/4bb3356d1ff043390af6b3212969ae3b91ccb5d345e74a577fa65102851fba5d"
    }
  }, {
    "fullUrl": "Observation/fc24681047bf6e08fa7c99bacc1998d38992c1eb0029f0cdb20740a0203528f9",
    "resource": {
      "resourceType": "Observation",
      "id": "fc24681047bf6e08fa7c99bacc1998d38992c1eb0029f0cdb20740a0203528f9",
      "meta": {
        "profile": [ "https://www.medizininformatik-initiative.de/fhir/ext/modul-onko/StructureDefinition/mii-pr-onko-tnm-n-kategorie" ]
      },
      "identifier": [ {
        "system": "https://bzkf.github.io/obds-to-fhir/identifiers/tnm-n-kategorie-observation-id",
        "value": "4444888c-c_N"
      } ],
      "status": "final",
      "code": {
        "extension": [ {
          "url": "https://www.medizininformatik-initiative.de/fhir/ext/modul-onko/StructureDefinition/mii-ex-onko-tnm-cp-praefix",
          "valueCodeableConcept": {
            "coding": [ {
              "system": "https://www.uicc.org/resources/tnm",
              "code": "p"
            } ]
          }
        } ],
        "coding": [ {
          "system": "http://snomed.info/sct",
          "version": "http://snomed.info/sct/900000000000207008/version/20250501",
          "code": "371494008",
          "display": "pN category (observable entity)"
        } ]
      },
      "subject": {
        "reference": "Patient/3919f05c9c061487bab3c8f0c50212061d29d4a31d6709c14955d3e551f9ab6d"
      },
      "focus": [ {
        "reference": "Condition/6a8f23897a4ab43af23664a6f42a8ad951db5e548e3817f68a66a6e4d9e02e8e"
      } ],
      "effectiveDateTime": "2024-02-09",
      "valueCodeableConcept": {
        "coding": [ {
          "system": "https://www.uicc.org/resources/tnm",
          "code": "N1b"
        } ]
      },
      "method": {
        "coding": [ {
          "system": "https://www.medizininformatik-initiative.de/fhir/ext/modul-onko/CodeSystem/mii-cs-onko-tnm-version",
          "code": "8"
        } ]
      }
    },
    "request": {
      "method": "PUT",
      "url": "Observation/fc24681047bf6e08fa7c99bacc1998d38992c1eb0029f0cdb20740a0203528f9"
    }
  }, {
    "fullUrl": "Observation/0a28cb1ecbe6e60276eed2805b517b0c3a1871b90d2701f4bfd0dd30258b1a6e",
    "resource": {
      "resourceType": "Observation",
      "id": "0a28cb1ecbe6e60276eed2805b517b0c3a1871b90d2701f4bfd0dd30258b1a6e",
      "meta": {
        "profile": [ "https://www.medizininformatik-initiative.de/fhir/ext/modul-onko/StructureDefinition/mii-pr-onko-tnm-m-kategorie" ]
      },
      "identifier": [ {
        "system": "https://bzkf.github.io/obds-to-fhir/identifiers/tnm-m-kategorie-observation-id",
        "value": "4444888c-c_M"
      } ],
      "status": "final",
      "code": {
        "extension": [ {
          "url": "https://www.medizininformatik-initiative.de/fhir/ext/modul-onko/StructureDefinition/mii-ex-onko-tnm-cp-praefix",
          "valueCodeableConcept": {
            "coding": [ {
              "system": "https://www.uicc.org/resources/tnm",
              "code": "p"
            } ]
          }
        } ],
        "coding": [ {
          "system": "http://snomed.info/sct",
          "version": "http://snomed.info/sct/900000000000207008/version/20250501",
          "code": "371497001",
          "display": "pM category (observable entity)"
        } ]
      },
      "subject": {
        "reference": "Patient/3919f05c9c061487bab3c8f0c50212061d29d4a31d6709c14955d3e551f9ab6d"
      },
      "focus": [ {
        "reference": "Condition/6a8f23897a4ab43af23664a6f42a8ad951db5e548e3817f68a66a6e4d9e02e8e"
      } ],
      "effectiveDateTime": "2024-02-09",
      "valueCodeableConcept": {
        "coding": [ {
          "system": "https://www.uicc.org/resources/tnm",
          "code": "M1b"
        } ]
      },
      "method": {
        "coding": [ {
          "system": "https://www.medizininformatik-initiative.de/fhir/ext/modul-onko/CodeSystem/mii-cs-onko-tnm-version",
          "code": "8"
        } ]
      }
    },
    "request": {
      "method": "PUT",
      "url": "Observation/0a28cb1ecbe6e60276eed2805b517b0c3a1871b90d2701f4bfd0dd30258b1a6e"
    }
  }, {
    "fullUrl": "Observation/06935140e6319ff0af9e83f33907fa6d881f8c98617d35de39aef3f4ca624469",
    "resource": {
      "resourceType": "Observation",
      "id": "06935140e6319ff0af9e83f33907fa6d881f8c98617d35de39aef3f4ca624469",
      "meta": {
        "profile": [ "https://www.medizininformatik-initiative.de/fhir/ext/modul-onko/StructureDefinition/mii-pr-onko-tnm-klassifikation" ]
      },
      "identifier": [ {
        "system": "https://bzkf.github.io/obds-to-fhir/identifiers/tnm-grouping-observation-id",
        "value": "4444888c-c"
      } ],
      "status": "final",
      "code": {
        "coding": [ {
          "system": "http://snomed.info/sct",
          "version": "http://snomed.info/sct/900000000000207008/version/20250501",
          "code": "399537006",
          "display": "Clinical TNM stage grouping"
        } ]
      },
      "subject": {
        "reference": "Patient/3919f05c9c061487bab3c8f0c50212061d29d4a31d6709c14955d3e551f9ab6d"
      },
      "focus": [ {
        "reference": "Condition/6a8f23897a4ab43af23664a6f42a8ad951db5e548e3817f68a66a6e4d9e02e8e"
      } ],
      "effectiveDateTime": "2024-02-09",
      "method": {
        "coding": [ {
          "system": "https://www.medizininformatik-initiative.de/fhir/ext/modul-onko/CodeSystem/mii-cs-onko-tnm-version",
          "code": "8"
        } ]
      },
      "hasMember": [ {
        "reference": "Observation/4bb3356d1ff043390af6b3212969ae3b91ccb5d345e74a577fa65102851fba5d"
      }, {
        "reference": "Observation/fc24681047bf6e08fa7c99bacc1998d38992c1eb0029f0cdb20740a0203528f9"
      }, {
        "reference": "Observation/0a28cb1ecbe6e60276eed2805b517b0c3a1871b90d2701f4bfd0dd30258b1a6e"
      } ]
    },
    "request": {
      "method": "PUT",
      "url": "Observation/06935140e6319ff0af9e83f33907fa6d881f8c98617d35de39aef3f4ca624469"
    }
  }, {
    "fullUrl": "Observation/ccbab04eb322ee71ff5d60b3770ab16277fdde79c950e34c040f668d2d7f00c9",
    "resource": {
      "resourceType": "Observation",
      "id": "ccbab04eb322ee71ff5d60b3770ab16277fdde79c950e34c040f668d2d7f00c9",
      "meta": {
        "profile": [ "https://www.medizininformatik-initiative.de/fhir/ext/modul-onko/StructureDefinition/mii-pr-onko-tnm-t-kategorie" ]
      },
      "identifier": [ {
        "system": "https://bzkf.github.io/obds-to-fhir/identifiers/tnm-t-kategorie-observation-id",
        "value": "5555555-p_T"
      } ],
      "status": "final",
      "code": {
        "extension": [ {
          "url": "https://www.medizininformatik-initiative.de/fhir/ext/modul-onko/StructureDefinition/mii-ex-onko-tnm-cp-praefix",
          "valueCodeableConcept": {
            "coding": [ {
              "system": "https://www.uicc.org/resources/tnm",
              "code": "p"
            } ]
          }
        } ],
        "coding": [ {
          "system": "http://snomed.info/sct",
          "version": "http://snomed.info/sct/900000000000207008/version/20250501",
          "code": "384625004",
          "display": "pT category (observable entity)"
        } ]
      },
      "subject": {
        "reference": "Patient/3919f05c9c061487bab3c8f0c50212061d29d4a31d6709c14955d3e551f9ab6d"
      },
      "focus": [ {
        "reference": "Condition/6a8f23897a4ab43af23664a6f42a8ad951db5e548e3817f68a66a6e4d9e02e8e"
      } ],
      "effectiveDateTime": "2023-10-11",
      "valueCodeableConcept": {
        "coding": [ {
          "system": "https://www.uicc.org/resources/tnm",
          "code": "Tis"
        } ]
      },
      "method": {
        "coding": [ {
          "system": "https://www.medizininformatik-initiative.de/fhir/ext/modul-onko/CodeSystem/mii-cs-onko-tnm-version",
          "code": "8"
        } ]
      }
    },
    "request": {
      "method": "PUT",
      "url": "Observation/ccbab04eb322ee71ff5d60b3770ab16277fdde79c950e34c040f668d2d7f00c9"
    }
  }, {
    "fullUrl": "Observation/94497da675770fb064e7f72257406f294378d985336fc545d4897262095ed1b0",
    "resource": {
      "resourceType": "Observation",
      "id": "94497da675770fb064e7f72257406f294378d985336fc545d4897262095ed1b0",
      "meta": {
        "profile": [ "https://www.medizininformatik-initiative.de/fhir/ext/modul-onko/StructureDefinition/mii-pr-onko-tnm-klassifikation" ]
      },
      "identifier": [ {
        "system": "https://bzkf.github.io/obds-to-fhir/identifiers/tnm-grouping-observation-id",
        "value": "5555555-p"
      } ],
      "status": "final",
      "code": {
        "coding": [ {
          "system": "http://snomed.info/sct",
          "version": "http://snomed.info/sct/900000000000207008/version/20250501",
          "code": "399588009",
          "display": "Pathologic TNM stage grouping"
        } ]
      },
      "subject": {
        "reference": "Patient/3919f05c9c061487bab3c8f0c50212061d29d4a31d6709c14955d3e551f9ab6d"
      },
      "focus": [ {
        "reference": "Condition/6a8f23897a4ab43af23664a6f42a8ad951db5e548e3817f68a66a6e4d9e02e8e"
      } ],
      "effectiveDateTime": "2023-10-11",
      "method": {
        "coding": [ {
          "system": "https://www.medizininformatik-initiative.de/fhir/ext/modul-onko/CodeSystem/mii-cs-onko-tnm-version",
          "code": "8"
        } ]
      },
      "hasMember": [ {
        "reference": "Observation/ccbab04eb322ee71ff5d60b3770ab16277fdde79c950e34c040f668d2d7f00c9"
      } ]
    },
    "request": {
      "method": "PUT",
      "url": "Observation/94497da675770fb064e7f72257406f294378d985336fc545d4897262095ed1b0"
    }
  }, {
    "fullUrl": "Observation/3ad4c2254b6c6c999269ac1ded4437129dd36cd0238761da9827664610c49429",
    "resource": {
      "resourceType": "Observation",
      "id": "3ad4c2254b6c6c999269ac1ded4437129dd36cd0238761da9827664610c49429",
      "meta": {
        "profile": [ "https://www.medizininformatik-initiative.de/fhir/ext/modul-onko/StructureDefinition/mii-pr-onko-weitere-klassifikationen" ]
      },
      "identifier": [ {
        "system": "https://bzkf.github.io/obds-to-fhir/identifiers/weitere-klassifikation-observation-id",
        "value": "2103B5C5-123123-12312-AJCC-2023-12-09"
      } ],
      "status": "final",
      "code": {
        "text": "AJCC"
      },
      "subject": {
        "reference": "Patient/3919f05c9c061487bab3c8f0c50212061d29d4a31d6709c14955d3e551f9ab6d"
      },
      "focus": [ {
        "reference": "Condition/6a8f23897a4ab43af23664a6f42a8ad951db5e548e3817f68a66a6e4d9e02e8e"
      } ],
      "effectiveDateTime": "2023-12-09",
      "valueCodeableConcept": {
        "coding": [ {
          "code": "IV"
        } ]
      }
    },
    "request": {
      "method": "PUT",
      "url": "Observation/3ad4c2254b6c6c999269ac1ded4437129dd36cd0238761da9827664610c49429"
    }
  } ]
}