{
  "resourceType": "Bundle",
  "id": "66eab990c3ab4a1dac96eecfa7189a4455b4a4e9d39b1813fa20e17b8cc564d2",
  "type": "transaction",
  "entry": [ {
    "fullUrl": "Patient/66eab990c3ab4a1dac96eecfa7189a4455b4a4e9d39b1813fa20e17b8cc564d2",
    "resource": {
      "resourceType": "Patient",
      "id": "66eab990c3ab4a1dac96eecfa7189a4455b4a4e9d39b1813fa20e17b8cc564d2",
      "meta": {
        "profile": [ "https://www.medizininformatik-initiative.de/fhir/core/modul-person/StructureDefinition/PatientPseudonymisiert" ]
      },
      "identifier": [ {
        "type": {
          "coding": [ {
            "system": "http://terminology.hl7.org/CodeSystem/v2-0203",
            "code": "MR",
            "display": "Medical record number"
          }, {
            "system": "http://terminology.hl7.org/CodeSystem/v3-ObservationValue",
            "code": "PSEUDED",
            "display": "pseudonymized"
          } ]
        },
        "system": "https://bzkf.github.io/obds-to-fhir/identifiers/patient-id",
        "value": "30"
      } ],
      "gender": "male",
      "birthDate": "1951-10-15",
      "address": [ {
        "type": "both",
        "postalCode": "35390",
        "country": "DE"
      } ]
    },
    "request": {
      "method": "PUT",
      "url": "Patient/66eab990c3ab4a1dac96eecfa7189a4455b4a4e9d39b1813fa20e17b8cc564d2"
    }
  }, {
    "fullUrl": "Condition/280cf3a59b2bfe79a6d3517ac663328fa5e6c57942ec2c4836ccc18ef29f1848",
    "resource": {
      "resourceType": "Condition",
      "id": "280cf3a59b2bfe79a6d3517ac663328fa5e6c57942ec2c4836ccc18ef29f1848",
      "meta": {
        "profile": [ "https://www.medizininformatik-initiative.de/fhir/ext/modul-onko/StructureDefinition/mii-pr-onko-diagnose-primaertumor" ]
      },
      "extension": [ {
        "url": "https://www.medizininformatik-initiative.de/fhir/ext/modul-onko/StructureDefinition/mii-ex-onko-histology-morphology-behavior-icdo3",
        "valueCodeableConcept": {
          "coding": [ {
            "system": "http://terminology.hl7.org/CodeSystem/icd-o-3",
            "version": "33",
            "code": "9823/3"
          } ],
          "text": "Chronisch lymphatische Leukämie"
        }
      }, {
        "url": "http://hl7.org/fhir/StructureDefinition/condition-assertedDate",
        "valueDateTime": "2015-04-03"
      } ],
      "identifier": [ {
        "system": "https://bzkf.github.io/obds-to-fhir/identifiers/primaerdiagnose-id",
        "value": "30-301"
      } ],
      "verificationStatus": {
        "coding": [ {
          "system": "http://terminology.hl7.org/CodeSystem/condition-ver-status",
          "code": "confirmed"
        }, {
          "system": "https://www.medizininformatik-initiative.de/fhir/ext/modul-onko/CodeSystem/mii-cs-onko-primaertumor-diagnosesicherung",
          "code": "7"
        } ]
      },
      "code": {
        "coding": [ {
          "system": "http://fhir.de/CodeSystem/bfarm/icd-10-gm",
          "version": "2020",
          "code": "C91.1"
        } ]
      },
      "bodySite": [ {
        "coding": [ {
          "system": "http://terminology.hl7.org/CodeSystem/icd-o-3",
          "version": "33",
          "code": "C42.1"
        } ],
        "text": "Knochenmark"
      }, {
        "coding": [ {
          "system": "https://www.medizininformatik-initiative.de/fhir/ext/modul-onko/CodeSystem/mii-cs-onko-seitenlokalisation",
          "code": "T"
        }, {
          "system": "http://snomed.info/sct",
          "version": "http://snomed.info/sct/900000000000207008/version/20250501",
          "code": "385432009",
          "display": "Not applicable (qualifier value)"
        } ]
      } ],
      "subject": {
        "reference": "Patient/66eab990c3ab4a1dac96eecfa7189a4455b4a4e9d39b1813fa20e17b8cc564d2"
      },
      "recordedDate": "2024-02-16",
      "evidence": [ {
        "detail": [ {
          "reference": "List/5c111f15d52594a1e3e176265fcb23a0fbcd7b893300a7afa3fbf4780f4f23cc"
        } ]
      } ]
    },
    "request": {
      "method": "PUT",
      "url": "Condition/280cf3a59b2bfe79a6d3517ac663328fa5e6c57942ec2c4836ccc18ef29f1848"
    }
  }, {
    "fullUrl": "Procedure/20e22fcd38d26f04e68c47a89593d87bd215142f6188e41d490c3d7d8ec6c3cc",
    "resource": {
      "resourceType": "Procedure",
      "id": "20e22fcd38d26f04e68c47a89593d87bd215142f6188e41d490c3d7d8ec6c3cc",
      "meta": {
        "profile": [ "https://www.medizininformatik-initiative.de/fhir/ext/modul-onko/StructureDefinition/mii-pr-onko-systemische-therapie" ]
      },
      "extension": [ {
        "url": "https://www.medizininformatik-initiative.de/fhir/ext/modul-onko/StructureDefinition/mii-ex-onko-systemische-therapie-intention",
        "valueCodeableConcept": {
          "coding": [ {
            "system": "https://www.medizininformatik-initiative.de/fhir/ext/modul-onko/CodeSystem/mii-cs-onko-intention",
            "code": "K"
          } ]
        }
      }, {
        "url": "https://www.medizininformatik-initiative.de/fhir/ext/modul-onko/StructureDefinition/mii-ex-onko-strahlentherapie-stellungzurop",
        "valueCodeableConcept": {
          "coding": [ {
            "system": "https://www.medizininformatik-initiative.de/fhir/ext/modul-onko/CodeSystem/mii-cs-therapie-stellungzurop",
            "code": "O"
          } ]
        }
      } ],
      "identifier": [ {
        "system": "https://bzkf.github.io/obds-to-fhir/identifiers/systemische-therapie-procedure-id",
        "value": "993_syst1"
      } ],
      "status": "in-progress",
      "category": {
        "coding": [ {
          "system": "http://snomed.info/sct",
          "version": "http://snomed.info/sct/900000000000207008/version/20250501",
          "code": "18629005",
          "display": "Administration of drug or medicament (procedure)"
        } ]
      },
      "code": {
        "coding": [ {
          "system": "http://fhir.de/CodeSystem/bfarm/ops",
          "version": "2025",
          "code": "8-54",
          "display": "Zytostatische Chemotherapie, Immuntherapie und antiretrovirale Therapie"
        }, {
          "system": "https://www.medizininformatik-initiative.de/fhir/ext/modul-onko/CodeSystem/mii-cs-onko-therapie-typ",
          "code": "CI"
        } ],
        "text": "FCR"
      },
      "subject": {
        "reference": "Patient/66eab990c3ab4a1dac96eecfa7189a4455b4a4e9d39b1813fa20e17b8cc564d2"
      },
      "performedPeriod": {
        "start": "2020-09-01"
      }
    },
    "request": {
      "method": "PUT",
      "url": "Procedure/20e22fcd38d26f04e68c47a89593d87bd215142f6188e41d490c3d7d8ec6c3cc"
    }
  }, {
    "fullUrl": "MedicationStatement/2b02246ea3bfa79ee4fbfe7705607be66ef7b35e0cc4136767d5f3e0e2236e69",
    "resource": {
      "resourceType": "MedicationStatement",
      "id": "2b02246ea3bfa79ee4fbfe7705607be66ef7b35e0cc4136767d5f3e0e2236e69",
      "meta": {
        "profile": [ "https://www.medizininformatik-initiative.de/fhir/ext/modul-onko/StructureDefinition/mii-pr-onko-systemische-therapie-medikation" ]
      },
      "identifier": [ {
        "system": "https://bzkf.github.io/obds-to-fhir/identifiers/systemische-therapie-medication-statement-id",
        "value": "993_syst1-Cyclophosphamid_7ddd"
      } ],
      "partOf": [ {
        "reference": "Procedure/20e22fcd38d26f04e68c47a89593d87bd215142f6188e41d490c3d7d8ec6c3cc"
      } ],
      "status": "active",
      "medicationCodeableConcept": {
        "text": "Cyclophosphamid"
      },
      "subject": {
        "reference": "Patient/66eab990c3ab4a1dac96eecfa7189a4455b4a4e9d39b1813fa20e17b8cc564d2"
      },
      "effectivePeriod": {
        "start": "2020-09-01"
      }
    },
    "request": {
      "method": "PUT",
      "url": "MedicationStatement/2b02246ea3bfa79ee4fbfe7705607be66ef7b35e0cc4136767d5f3e0e2236e69"
    }
  }, {
    "fullUrl": "MedicationStatement/2e92e0ab32652e4db12b9fe89a73819bce71f3051453b15949e83c7b9918b325",
    "resource": {
      "resourceType": "MedicationStatement",
      "id": "2e92e0ab32652e4db12b9fe89a73819bce71f3051453b15949e83c7b9918b325",
      "meta": {
        "profile": [ "https://www.medizininformatik-initiative.de/fhir/ext/modul-onko/StructureDefinition/mii-pr-onko-systemische-therapie-medikation" ]
      },
      "identifier": [ {
        "system": "https://bzkf.github.io/obds-to-fhir/identifiers/systemische-therapie-medication-statement-id",
        "value": "993_syst1-Rituximab_e082"
      } ],
      "partOf": [ {
        "reference": "Procedure/20e22fcd38d26f04e68c47a89593d87bd215142f6188e41d490c3d7d8ec6c3cc"
      } ],
      "status": "active",
      "medicationCodeableConcept": {
        "text": "Rituximab"
      },
      "subject": {
        "reference": "Patient/66eab990c3ab4a1dac96eecfa7189a4455b4a4e9d39b1813fa20e17b8cc564d2"
      },
      "effectivePeriod": {
        "start": "2020-09-01"
      }
    },
    "request": {
      "method": "PUT",
      "url": "MedicationStatement/2e92e0ab32652e4db12b9fe89a73819bce71f3051453b15949e83c7b9918b325"
    }
  }, {
    "fullUrl": "MedicationStatement/c41aff6371cf54a199f3c66e7ac78049d79cdd5e9ea3b24683b036f1d9cbdec8",
    "resource": {
      "resourceType": "MedicationStatement",
      "id": "c41aff6371cf54a199f3c66e7ac78049d79cdd5e9ea3b24683b036f1d9cbdec8",
      "meta": {
        "profile": [ "https://www.medizininformatik-initiative.de/fhir/ext/modul-onko/StructureDefinition/mii-pr-onko-systemische-therapie-medikation" ]
      },
      "identifier": [ {
        "system": "https://bzkf.github.io/obds-to-fhir/identifiers/systemische-therapie-medication-statement-id",
        "value": "993_syst1-Fludarabin_2b64"
      } ],
      "partOf": [ {
        "reference": "Procedure/20e22fcd38d26f04e68c47a89593d87bd215142f6188e41d490c3d7d8ec6c3cc"
      } ],
      "status": "active",
      "medicationCodeableConcept": {
        "text": "Fludarabin"
      },
      "subject": {
        "reference": "Patient/66eab990c3ab4a1dac96eecfa7189a4455b4a4e9d39b1813fa20e17b8cc564d2"
      },
      "effectivePeriod": {
        "start": "2020-09-01"
      }
    },
    "request": {
      "method": "PUT",
      "url": "MedicationStatement/c41aff6371cf54a199f3c66e7ac78049d79cdd5e9ea3b24683b036f1d9cbdec8"
    }
  }, {
    "fullUrl": "Observation/84311930f093ea4d654d76846e11eb565e18a68dac160a4ae38f3231736e1c43",
    "resource": {
      "resourceType": "Observation",
      "id": "84311930f093ea4d654d76846e11eb565e18a68dac160a4ae38f3231736e1c43",
      "meta": {
        "profile": [ "https://www.medizininformatik-initiative.de/fhir/ext/modul-onko/StructureDefinition/mii-pr-onko-studienteilnahme" ]
      },
      "identifier": [ {
        "system": "https://bzkf.github.io/obds-to-fhir/identifiers/studienteilnahme-id",
        "value": "30_Inner_2-Studienteilnahme"
      } ],
      "status": "final",
      "code": {
        "coding": [ {
          "system": "http://snomed.info/sct",
          "version": "http://snomed.info/sct/900000000000207008/version/20250501",
          "code": "709491003",
          "display": "Enrollment in clinical trial (procedure)"
        } ]
      },
      "subject": {
        "reference": "Patient/66eab990c3ab4a1dac96eecfa7189a4455b4a4e9d39b1813fa20e17b8cc564d2"
      },
      "focus": [ {
        "reference": "Condition/280cf3a59b2bfe79a6d3517ac663328fa5e6c57942ec2c4836ccc18ef29f1848"
      } ],
      "valueCodeableConcept": {
        "coding": [ {
          "system": "https://www.medizininformatik-initiative.de/fhir/ext/modul-onko/CodeSystem/mii-cs-onko-studienteilnahme",
          "code": "N"
        } ]
      }
    },
    "request": {
      "method": "PUT",
      "url": "Observation/84311930f093ea4d654d76846e11eb565e18a68dac160a4ae38f3231736e1c43"
    }
  }, {
    "fullUrl": "CarePlan/72062eee5679ff3f1831b970f9066808d9d84093afb30e1ef5c67aefdef35672",
    "resource": {
      "resourceType": "CarePlan",
      "id": "72062eee5679ff3f1831b970f9066808d9d84093afb30e1ef5c67aefdef35672",
      "meta": {
        "profile": [ "https://www.medizininformatik-initiative.de/fhir/ext/modul-onko/StructureDefinition/mii-pr-onko-tumorkonferenz" ]
      },
      "identifier": [ {
        "system": "https://bzkf.github.io/obds-to-fhir/identifiers/tumorkonferenz-id",
        "value": "Tumorkonferenz-111"
      } ],
      "status": "active",
      "intent": "plan",
      "category": [ {
        "coding": [ {
          "system": "https://www.medizininformatik-initiative.de/fhir/ext/modul-onko/CodeSystem/mii-cs-onko-therapieplanung-typ",
          "code": "praeth"
        } ]
      } ],
      "subject": {
        "reference": "Patient/66eab990c3ab4a1dac96eecfa7189a4455b4a4e9d39b1813fa20e17b8cc564d2"
      },
      "created": "2020-08-17",
      "addresses": [ {
        "reference": "Condition/280cf3a59b2bfe79a6d3517ac663328fa5e6c57942ec2c4836ccc18ef29f1848"
      } ]
    },
    "request": {
      "method": "PUT",
      "url": "CarePlan/72062eee5679ff3f1831b970f9066808d9d84093afb30e1ef5c67aefdef35672"
    }
  }, {
    "fullUrl": "Procedure/468b48b84c08b2959fa1521508cb461ed2111042570286cc8183a6bd45576d3a",
    "resource": {
      "resourceType": "Procedure",
      "id": "468b48b84c08b2959fa1521508cb461ed2111042570286cc8183a6bd45576d3a",
      "meta": {
        "profile": [ "https://www.medizininformatik-initiative.de/fhir/ext/modul-onko/StructureDefinition/mii-pr-onko-systemische-therapie" ]
      },
      "extension": [ {
        "url": "https://www.medizininformatik-initiative.de/fhir/ext/modul-onko/StructureDefinition/mii-ex-onko-systemische-therapie-intention",
        "valueCodeableConcept": {
          "coding": [ {
            "system": "https://www.medizininformatik-initiative.de/fhir/ext/modul-onko/CodeSystem/mii-cs-onko-intention",
            "code": "S"
          } ]
        }
      }, {
        "url": "https://www.medizininformatik-initiative.de/fhir/ext/modul-onko/StructureDefinition/mii-ex-onko-strahlentherapie-stellungzurop",
        "valueCodeableConcept": {
          "coding": [ {
            "system": "https://www.medizininformatik-initiative.de/fhir/ext/modul-onko/CodeSystem/mii-cs-therapie-stellungzurop",
            "code": "O"
          } ]
        }
      } ],
      "identifier": [ {
        "system": "https://bzkf.github.io/obds-to-fhir/identifiers/systemische-therapie-procedure-id",
        "value": "992_syst1"
      } ],
      "status": "completed",
      "code": {
        "coding": [ {
          "system": "http://snomed.info/sct",
          "version": "http://snomed.info/sct/900000000000207008/version/20250501",
          "code": "373818007",
          "display": "No anti-cancer treatment - watchful waiting (finding)"
        }, {
          "system": "https://www.medizininformatik-initiative.de/fhir/ext/modul-onko/CodeSystem/mii-cs-onko-therapie-typ",
          "code": "WW"
        } ]
      },
      "subject": {
        "reference": "Patient/66eab990c3ab4a1dac96eecfa7189a4455b4a4e9d39b1813fa20e17b8cc564d2"
      },
      "performedPeriod": {
        "start": "2015-07-15",
        "end": "2020-07-18"
      },
      "outcome": {
        "coding": [ {
          "system": "https://www.medizininformatik-initiative.de/fhir/ext/modul-onko/CodeSystem/mii-cs-therapie-grund-ende",
          "code": "P"
        } ]
      }
    },
    "request": {
      "method": "PUT",
      "url": "Procedure/468b48b84c08b2959fa1521508cb461ed2111042570286cc8183a6bd45576d3a"
    }
  }, {
    "fullUrl": "Observation/36adfe338d3f48d5fb78ab927a97860d653156a21f544fde96e9b58f70b36c6e",
    "resource": {
      "resourceType": "Observation",
      "id": "36adfe338d3f48d5fb78ab927a97860d653156a21f544fde96e9b58f70b36c6e",
      "meta": {
        "profile": [ "https://www.medizininformatik-initiative.de/fhir/ext/modul-onko/StructureDefinition/mii-pr-onko-studienteilnahme" ]
      },
      "identifier": [ {
        "system": "https://bzkf.github.io/obds-to-fhir/identifiers/studienteilnahme-id",
        "value": "30_Inner_1-Studienteilnahme"
      } ],
      "status": "final",
      "code": {
        "coding": [ {
          "system": "http://snomed.info/sct",
          "version": "http://snomed.info/sct/900000000000207008/version/20250501",
          "code": "709491003",
          "display": "Enrollment in clinical trial (procedure)"
        } ]
      },
      "subject": {
        "reference": "Patient/66eab990c3ab4a1dac96eecfa7189a4455b4a4e9d39b1813fa20e17b8cc564d2"
      },
      "focus": [ {
        "reference": "Condition/280cf3a59b2bfe79a6d3517ac663328fa5e6c57942ec2c4836ccc18ef29f1848"
      } ],
      "valueCodeableConcept": {
        "coding": [ {
          "system": "https://www.medizininformatik-initiative.de/fhir/ext/modul-onko/CodeSystem/mii-cs-onko-studienteilnahme",
          "code": "N"
        } ]
      }
    },
    "request": {
      "method": "PUT",
      "url": "Observation/36adfe338d3f48d5fb78ab927a97860d653156a21f544fde96e9b58f70b36c6e"
    }
  }, {
    "fullUrl": "Observation/44ef659215b381d8790b6c78a8105b1a64b4c532e1cee97d422528d571d1e150",
    "resource": {
      "resourceType": "Observation",
      "id": "44ef659215b381d8790b6c78a8105b1a64b4c532e1cee97d422528d571d1e150",
      "meta": {
        "profile": [ "https://www.medizininformatik-initiative.de/fhir/ext/modul-onko/StructureDefinition/mii-pr-onko-verlauf" ]
      },
      "identifier": [ {
        "system": "https://bzkf.github.io/obds-to-fhir/identifiers/observation-verlauf-id",
        "value": "158"
      } ],
      "status": "final",
      "code": {
        "coding": [ {
          "system": "http://snomed.info/sct",
          "version": "http://snomed.info/sct/900000000000207008/version/20250501",
          "code": "396432002",
          "display": "Status of regression of tumor (observable entity)"
        } ]
      },
      "subject": {
        "reference": "Patient/66eab990c3ab4a1dac96eecfa7189a4455b4a4e9d39b1813fa20e17b8cc564d2"
      },
      "focus": [ {
        "reference": "Condition/280cf3a59b2bfe79a6d3517ac663328fa5e6c57942ec2c4836ccc18ef29f1848"
      } ],
      "effectiveDateTime": "2020-07-18",
      "valueCodeableConcept": {
        "coding": [ {
          "system": "https://www.medizininformatik-initiative.de/fhir/ext/modul-onko/CodeSystem/mii-cs-onko-verlauf-gesamtbeurteilung",
          "code": "P",
          "display": "Progression"
        } ]
      }
    },
    "request": {
      "method": "PUT",
      "url": "Observation/44ef659215b381d8790b6c78a8105b1a64b4c532e1cee97d422528d571d1e150"
    }
  }, {
    "fullUrl": "Observation/cc4dd4a4b721a37b7fe09749609bfc409f12816af087e11a9ef12ac37c18aa8f",
    "resource": {
      "resourceType": "Observation",
      "id": "cc4dd4a4b721a37b7fe09749609bfc409f12816af087e11a9ef12ac37c18aa8f",
      "meta": {
        "profile": [ "https://www.medizininformatik-initiative.de/fhir/ext/modul-onko/StructureDefinition/mii-pr-onko-allgemeiner-leistungszustand-ecog" ]
      },
      "identifier": [ {
        "system": "https://bzkf.github.io/obds-to-fhir/identifiers/allgemeiner-leistungszustand-ecog-id",
        "value": "ECOG-30_Verlauf_1"
      } ],
      "status": "final",
      "code": {
        "coding": [ {
          "system": "http://snomed.info/sct",
          "version": "http://snomed.info/sct/900000000000207008/version/20250501",
          "code": "423740007",
          "display": "Eastern Cooperative Oncology Group performance status (observable entity)"
        } ]
      },
      "subject": {
        "reference": "Patient/66eab990c3ab4a1dac96eecfa7189a4455b4a4e9d39b1813fa20e17b8cc564d2"
      },
      "focus": [ {
        "reference": "Condition/280cf3a59b2bfe79a6d3517ac663328fa5e6c57942ec2c4836ccc18ef29f1848"
      } ],
      "effectiveDateTime": "2020-07-18",
      "valueCodeableConcept": {
        "coding": [ {
          "system": "https://www.medizininformatik-initiative.de/fhir/ext/modul-onko/CodeSystem/mii-cs-onko-allgemeiner-leistungszustand-ecog",
          "code": "0",
          "display": "Normale, uneingeschränkte Aktivität wie vor der Erkrankung (90 - 100 % nach Karnofsky)"
        } ]
      }
    },
    "request": {
      "method": "PUT",
      "url": "Observation/cc4dd4a4b721a37b7fe09749609bfc409f12816af087e11a9ef12ac37c18aa8f"
    }
  }, {
    "fullUrl": "Observation/e19f3412f3573b17c07a2942c786f916c2bcdd7be404c876879f70affb770252",
    "resource": {
      "resourceType": "Observation",
      "id": "e19f3412f3573b17c07a2942c786f916c2bcdd7be404c876879f70affb770252",
      "meta": {
        "profile": [ "https://www.medizininformatik-initiative.de/fhir/ext/modul-onko/StructureDefinition/mii-pr-onko-studienteilnahme" ]
      },
      "identifier": [ {
        "system": "https://bzkf.github.io/obds-to-fhir/identifiers/studienteilnahme-id",
        "value": "30_Verlauf_1-Studienteilnahme"
      } ],
      "status": "final",
      "code": {
        "coding": [ {
          "system": "http://snomed.info/sct",
          "version": "http://snomed.info/sct/900000000000207008/version/20250501",
          "code": "709491003",
          "display": "Enrollment in clinical trial (procedure)"
        } ]
      },
      "subject": {
        "reference": "Patient/66eab990c3ab4a1dac96eecfa7189a4455b4a4e9d39b1813fa20e17b8cc564d2"
      },
      "focus": [ {
        "reference": "Condition/280cf3a59b2bfe79a6d3517ac663328fa5e6c57942ec2c4836ccc18ef29f1848"
      } ],
      "valueCodeableConcept": {
        "coding": [ {
          "system": "https://www.medizininformatik-initiative.de/fhir/ext/modul-onko/CodeSystem/mii-cs-onko-studienteilnahme",
          "code": "N"
        } ]
      }
    },
    "request": {
      "method": "PUT",
      "url": "Observation/e19f3412f3573b17c07a2942c786f916c2bcdd7be404c876879f70affb770252"
    }
  }, {
    "fullUrl": "Observation/139e56223545fedbb4911f0ddddf852d9fd3459bfc9132989724318b5cbc9f7a",
    "resource": {
      "resourceType": "Observation",
      "id": "139e56223545fedbb4911f0ddddf852d9fd3459bfc9132989724318b5cbc9f7a",
      "meta": {
        "profile": [ "https://www.medizininformatik-initiative.de/fhir/ext/modul-onko/StructureDefinition/mii-pr-onko-allgemeiner-leistungszustand-ecog" ]
      },
      "identifier": [ {
        "system": "https://bzkf.github.io/obds-to-fhir/identifiers/allgemeiner-leistungszustand-ecog-id",
        "value": "ECOG-30_DIA_CLL_01"
      } ],
      "status": "final",
      "code": {
        "coding": [ {
          "system": "http://snomed.info/sct",
          "version": "http://snomed.info/sct/900000000000207008/version/20250501",
          "code": "423740007",
          "display": "Eastern Cooperative Oncology Group performance status (observable entity)"
        } ]
      },
      "subject": {
        "reference": "Patient/66eab990c3ab4a1dac96eecfa7189a4455b4a4e9d39b1813fa20e17b8cc564d2"
      },
      "focus": [ {
        "reference": "Condition/280cf3a59b2bfe79a6d3517ac663328fa5e6c57942ec2c4836ccc18ef29f1848"
      } ],
      "effectiveDateTime": "2015-04-03",
      "valueCodeableConcept": {
        "coding": [ {
          "system": "https://www.medizininformatik-initiative.de/fhir/ext/modul-onko/CodeSystem/mii-cs-onko-allgemeiner-leistungszustand-ecog",
          "code": "0",
          "display": "Normale, uneingeschränkte Aktivität wie vor der Erkrankung (90 - 100 % nach Karnofsky)"
        } ]
      }
    },
    "request": {
      "method": "PUT",
      "url": "Observation/139e56223545fedbb4911f0ddddf852d9fd3459bfc9132989724318b5cbc9f7a"
    }
  }, {
    "fullUrl": "Specimen/cac92d4dc889a2b71271d6018d492914391709a69ac21b6849b849ccc00a2575",
    "resource": {
      "resourceType": "Specimen",
      "id": "cac92d4dc889a2b71271d6018d492914391709a69ac21b6849b849ccc00a2575",
      "meta": {
        "profile": [ "https://www.medizininformatik-initiative.de/fhir/ext/modul-onko/StructureDefinition/mii-pr-onko-specimen" ]
      },
      "identifier": [ {
        "system": "https://bzkf.github.io/obds-to-fhir/identifiers/specimen-id",
        "value": "273"
      } ],
      "accessionIdentifier": {
        "value": "H1234/2015"
      },
      "subject": {
        "reference": "Patient/66eab990c3ab4a1dac96eecfa7189a4455b4a4e9d39b1813fa20e17b8cc564d2"
      },
      "collection": {
        "collectedDateTime": "2015-04-03"
      }
    },
    "request": {
      "method": "PUT",
      "url": "Specimen/cac92d4dc889a2b71271d6018d492914391709a69ac21b6849b849ccc00a2575"
    }
  }, {
    "fullUrl": "Observation/7f1dfbb42c61b66028d7df0ea50ad1f9e863e9e6d2b98d70528fdbf77cb9bc55",
    "resource": {
      "resourceType": "Observation",
      "id": "7f1dfbb42c61b66028d7df0ea50ad1f9e863e9e6d2b98d70528fdbf77cb9bc55",
      "meta": {
        "profile": [ "https://www.medizininformatik-initiative.de/fhir/ext/modul-onko/StructureDefinition/mii-pr-onko-grading" ]
      },
      "identifier": [ {
        "system": "https://bzkf.github.io/obds-to-fhir/identifiers/grading-observation-id",
        "value": "273-grading"
      } ],
      "status": "final",
      "category": [ {
        "coding": [ {
          "system": "http://terminology.hl7.org/CodeSystem/observation-category",
          "code": "laboratory"
        } ]
      } ],
      "code": {
        "coding": [ {
          "system": "http://loinc.org",
          "version": "2.80",
          "code": "33732-9",
          "display": "Histology grade [Identifier] in Cancer specimen"
        }, {
          "system": "http://snomed.info/sct",
          "version": "http://snomed.info/sct/900000000000207008/version/20250501",
          "code": "371469007",
          "display": "Histologic grade of neoplasm (observable entity)"
        } ]
      },
      "subject": {
        "reference": "Patient/66eab990c3ab4a1dac96eecfa7189a4455b4a4e9d39b1813fa20e17b8cc564d2"
      },
      "focus": [ {
        "reference": "Condition/280cf3a59b2bfe79a6d3517ac663328fa5e6c57942ec2c4836ccc18ef29f1848"
      } ],
      "effectiveDateTime": "2015-04-03",
      "valueCodeableConcept": {
        "coding": [ {
          "system": "https://www.medizininformatik-initiative.de/fhir/ext/modul-onko/CodeSystem/mii-cs-onko-grading",
          "code": "T"
        } ]
      },
      "specimen": {
        "reference": "Specimen/cac92d4dc889a2b71271d6018d492914391709a69ac21b6849b849ccc00a2575"
      }
    },
    "request": {
      "method": "PUT",
      "url": "Observation/7f1dfbb42c61b66028d7df0ea50ad1f9e863e9e6d2b98d70528fdbf77cb9bc55"
    }
  }, {
    "fullUrl": "Observation/e3f4c42eacd29bbfc2e8950ff3a04b1e4eeed26a0d4c75184f18244f5b5d560e",
    "resource": {
      "resourceType": "Observation",
      "id": "e3f4c42eacd29bbfc2e8950ff3a04b1e4eeed26a0d4c75184f18244f5b5d560e",
      "meta": {
        "profile": [ "https://www.medizininformatik-initiative.de/fhir/ext/modul-onko/StructureDefinition/mii-pr-onko-studienteilnahme" ]
      },
      "identifier": [ {
        "system": "https://bzkf.github.io/obds-to-fhir/identifiers/studienteilnahme-id",
        "value": "30_DIA_CLL_01-Studienteilnahme"
      } ],
      "status": "final",
      "code": {
        "coding": [ {
          "system": "http://snomed.info/sct",
          "version": "http://snomed.info/sct/900000000000207008/version/20250501",
          "code": "709491003",
          "display": "Enrollment in clinical trial (procedure)"
        } ]
      },
      "subject": {
        "reference": "Patient/66eab990c3ab4a1dac96eecfa7189a4455b4a4e9d39b1813fa20e17b8cc564d2"
      },
      "focus": [ {
        "reference": "Condition/280cf3a59b2bfe79a6d3517ac663328fa5e6c57942ec2c4836ccc18ef29f1848"
      } ],
      "valueCodeableConcept": {
        "coding": [ {
          "system": "https://www.medizininformatik-initiative.de/fhir/ext/modul-onko/CodeSystem/mii-cs-onko-studienteilnahme",
          "code": "N"
        } ]
      }
    },
    "request": {
      "method": "PUT",
      "url": "Observation/e3f4c42eacd29bbfc2e8950ff3a04b1e4eeed26a0d4c75184f18244f5b5d560e"
    }
  }, {
    "fullUrl": "Observation/93248842d266c77b75d2ece014134690edc9be2a19081662367ba98532638a1c",
    "resource": {
      "resourceType": "Observation",
      "id": "93248842d266c77b75d2ece014134690edc9be2a19081662367ba98532638a1c",
      "meta": {
        "profile": [ "https://www.medizininformatik-initiative.de/fhir/ext/modul-onko/StructureDefinition/mii-pr-onko-weitere-klassifikationen" ]
      },
      "identifier": [ {
        "system": "https://bzkf.github.io/obds-to-fhir/identifiers/weitere-klassifikation-observation-id",
        "value": "30_DIA_CLL_01-Binet-2018-04-03"
      } ],
      "status": "final",
      "code": {
        "text": "Binet"
      },
      "subject": {
        "reference": "Patient/66eab990c3ab4a1dac96eecfa7189a4455b4a4e9d39b1813fa20e17b8cc564d2"
      },
      "focus": [ {
        "reference": "Condition/280cf3a59b2bfe79a6d3517ac663328fa5e6c57942ec2c4836ccc18ef29f1848"
      } ],
      "effectiveDateTime": "2018-04-03",
      "valueCodeableConcept": {
        "coding": [ {
          "code": "A"
        } ]
      }
    },
    "request": {
      "method": "PUT",
      "url": "Observation/93248842d266c77b75d2ece014134690edc9be2a19081662367ba98532638a1c"
    }
  }, {
    "fullUrl": "List/5c111f15d52594a1e3e176265fcb23a0fbcd7b893300a7afa3fbf4780f4f23cc",
    "resource": {
      "resourceType": "List",
      "id": "5c111f15d52594a1e3e176265fcb23a0fbcd7b893300a7afa3fbf4780f4f23cc",
      "meta": {
        "profile": [ "https://www.medizininformatik-initiative.de/fhir/ext/modul-onko/StructureDefinition/mii-pr-onko-liste-evidenz-erstdiagnose" ]
      },
      "identifier": [ {
        "system": "https://bzkf.github.io/obds-to-fhir/identifiers/erstdiagnose-evidenz-list-id",
        "value": "30-301"
      } ],
      "status": "current",
      "mode": "snapshot",
      "subject": {
        "reference": "Patient/66eab990c3ab4a1dac96eecfa7189a4455b4a4e9d39b1813fa20e17b8cc564d2"
      },
      "entry": [ {
        "item": {
          "reference": "Observation/139e56223545fedbb4911f0ddddf852d9fd3459bfc9132989724318b5cbc9f7a"
        }
      }, {
        "item": {
          "reference": "Specimen/cac92d4dc889a2b71271d6018d492914391709a69ac21b6849b849ccc00a2575"
        }
      }, {
        "item": {
          "reference": "Observation/7f1dfbb42c61b66028d7df0ea50ad1f9e863e9e6d2b98d70528fdbf77cb9bc55"
        }
      }, {
        "item": {
          "reference": "Observation/e3f4c42eacd29bbfc2e8950ff3a04b1e4eeed26a0d4c75184f18244f5b5d560e"
        }
      }, {
        "item": {
          "reference": "Observation/93248842d266c77b75d2ece014134690edc9be2a19081662367ba98532638a1c"
        }
      } ]
    },
    "request": {
      "method": "PUT",
      "url": "List/5c111f15d52594a1e3e176265fcb23a0fbcd7b893300a7afa3fbf4780f4f23cc"
    }
  } ]
}