{
  "resourceType": "Bundle",
  "id": "a02e16474896f1d528cac71f2c9b4c45ac3c9028e3a53fb414a1f7882991ee07",
  "type": "transaction",
  "entry": [ {
    "fullUrl": "Patient/a02e16474896f1d528cac71f2c9b4c45ac3c9028e3a53fb414a1f7882991ee07",
    "resource": {
      "resourceType": "Patient",
      "id": "a02e16474896f1d528cac71f2c9b4c45ac3c9028e3a53fb414a1f7882991ee07",
      "meta": {
        "profile": [ "https://www.medizininformatik-initiative.de/fhir/core/modul-person/StructureDefinition/PatientPseudonymisiert" ]
      },
      "identifier": [ {
        "type": {
          "coding": [ {
            "system": "http://terminology.hl7.org/CodeSystem/v2-0203",
            "code": "MR",
            "display": "Medical record number"
          }, {
            "system": "http://terminology.hl7.org/CodeSystem/v3-ObservationValue",
            "code": "PSEUDED",
            "display": "pseudonymized"
          } ]
        },
        "system": "https://bzkf.github.io/obds-to-fhir/identifiers/patient-id",
        "value": "10"
      } ],
      "gender": "female",
      "birthDate": "1950-05-01",
      "address": [ {
        "type": "both",
        "postalCode": "12345",
        "country": "DE"
      } ]
    },
    "request": {
      "method": "PUT",
      "url": "Patient/a02e16474896f1d528cac71f2c9b4c45ac3c9028e3a53fb414a1f7882991ee07"
    }
  }, {
    "fullUrl": "Condition/5e4b2f91fa2ef84922f2aa3ce0e3524ccbec1ac2673a424917d1be5aa56c7571",
    "resource": {
      "resourceType": "Condition",
      "id": "5e4b2f91fa2ef84922f2aa3ce0e3524ccbec1ac2673a424917d1be5aa56c7571",
      "meta": {
        "profile": [ "https://www.medizininformatik-initiative.de/fhir/ext/modul-onko/StructureDefinition/mii-pr-onko-diagnose-primaertumor" ]
      },
      "extension": [ {
        "url": "https://www.medizininformatik-initiative.de/fhir/ext/modul-onko/StructureDefinition/mii-ex-onko-histology-morphology-behavior-icdo3",
        "valueCodeableConcept": {
          "coding": [ {
            "system": "http://terminology.hl7.org/CodeSystem/icd-o-3",
            "version": "32",
            "code": "8461/3"
          } ],
          "text": "Seröses papilläres Oberflächenkarzinom"
        }
      }, {
        "url": "http://hl7.org/fhir/StructureDefinition/condition-assertedDate",
        "valueDateTime": "2017-07-02"
      } ],
      "identifier": [ {
        "system": "https://bzkf.github.io/obds-to-fhir/identifiers/primaerdiagnose-condition-id",
        "value": "10-1"
      } ],
      "verificationStatus": {
        "coding": [ {
          "system": "http://terminology.hl7.org/CodeSystem/condition-ver-status",
          "code": "confirmed"
        }, {
          "system": "https://www.medizininformatik-initiative.de/fhir/ext/modul-onko/CodeSystem/mii-cs-onko-primaertumor-diagnosesicherung",
          "code": "7"
        } ]
      },
      "code": {
        "coding": [ {
          "system": "http://fhir.de/CodeSystem/bfarm/icd-10-gm",
          "version": "2017",
          "code": "C56"
        } ]
      },
      "bodySite": [ {
        "coding": [ {
          "system": "http://terminology.hl7.org/CodeSystem/icd-o-3",
          "version": "32",
          "code": "C56.9"
        } ],
        "text": "Ovar"
      }, {
        "coding": [ {
          "system": "https://www.medizininformatik-initiative.de/fhir/ext/modul-onko/CodeSystem/mii-cs-onko-seitenlokalisation",
          "code": "T"
        }, {
          "system": "http://snomed.info/sct",
          "version": "http://snomed.info/sct/900000000000207008/version/20250501",
          "code": "385432009",
          "display": "Not applicable (qualifier value)"
        } ]
      } ],
      "subject": {
        "reference": "Patient/a02e16474896f1d528cac71f2c9b4c45ac3c9028e3a53fb414a1f7882991ee07"
      },
      "recordedDate": "2024-02-16",
      "evidence": [ {
        "detail": [ {
          "reference": "List/1d23de097c0082ec9a1c3e7fb033ded2e5300bccb3b4b38360b2708d12fc5cf3"
        } ]
      } ]
    },
    "request": {
      "method": "PUT",
      "url": "Condition/5e4b2f91fa2ef84922f2aa3ce0e3524ccbec1ac2673a424917d1be5aa56c7571"
    }
  }, {
    "fullUrl": "Observation/6ff37297dfe99bf538549b388e8a9dad85756899519ef6e8e1775da5273bac8d",
    "resource": {
      "resourceType": "Observation",
      "id": "6ff37297dfe99bf538549b388e8a9dad85756899519ef6e8e1775da5273bac8d",
      "meta": {
        "profile": [ "https://www.medizininformatik-initiative.de/fhir/ext/modul-onko/StructureDefinition/mii-pr-onko-allgemeiner-leistungszustand-ecog" ]
      },
      "identifier": [ {
        "system": "https://bzkf.github.io/obds-to-fhir/identifiers/allgemeiner-leistungszustand-ecog-id",
        "value": "ECOG-10_1_DI_1"
      } ],
      "status": "final",
      "code": {
        "coding": [ {
          "system": "http://snomed.info/sct",
          "version": "http://snomed.info/sct/900000000000207008/version/20250501",
          "code": "423740007",
          "display": "Eastern Cooperative Oncology Group performance status (observable entity)"
        } ]
      },
      "subject": {
        "reference": "Patient/a02e16474896f1d528cac71f2c9b4c45ac3c9028e3a53fb414a1f7882991ee07"
      },
      "focus": [ {
        "reference": "Condition/5e4b2f91fa2ef84922f2aa3ce0e3524ccbec1ac2673a424917d1be5aa56c7571"
      } ],
      "effectiveDateTime": "2017-07-02",
      "valueCodeableConcept": {
        "coding": [ {
          "system": "https://www.medizininformatik-initiative.de/fhir/ext/modul-onko/CodeSystem/mii-cs-onko-allgemeiner-leistungszustand-ecog",
          "code": "1",
          "display": "Einschränkung bei körperlicher Anstrengung, aber gehfähig; leichte körperliche Arbeit bzw. Arbeit im Sitzen (z. B. leichte Hausarbeit oder Büroarbeit) möglich (70 - 80 % nach Karnofsky)"
        } ]
      }
    },
    "request": {
      "method": "PUT",
      "url": "Observation/6ff37297dfe99bf538549b388e8a9dad85756899519ef6e8e1775da5273bac8d"
    }
  }, {
    "fullUrl": "Specimen/f67905a247bee2ed0a0a6388c4a820b19cd668be1482a0a2fc7df81c15576ffa",
    "resource": {
      "resourceType": "Specimen",
      "id": "f67905a247bee2ed0a0a6388c4a820b19cd668be1482a0a2fc7df81c15576ffa",
      "meta": {
        "profile": [ "https://www.medizininformatik-initiative.de/fhir/ext/modul-onko/StructureDefinition/mii-pr-onko-specimen" ]
      },
      "identifier": [ {
        "system": "https://bzkf.github.io/obds-to-fhir/identifiers/histologie-specimen-id",
        "value": "280"
      } ],
      "accessionIdentifier": {
        "value": "H111/2017"
      },
      "subject": {
        "reference": "Patient/a02e16474896f1d528cac71f2c9b4c45ac3c9028e3a53fb414a1f7882991ee07"
      },
      "collection": {
        "collectedDateTime": "2017-07-02"
      }
    },
    "request": {
      "method": "PUT",
      "url": "Specimen/f67905a247bee2ed0a0a6388c4a820b19cd668be1482a0a2fc7df81c15576ffa"
    }
  }, {
    "fullUrl": "Observation/1e7d5d97cd0cd644942036d8c612b5421ccda0a6d0fd2c961d02d028f7c086dd",
    "resource": {
      "resourceType": "Observation",
      "id": "1e7d5d97cd0cd644942036d8c612b5421ccda0a6d0fd2c961d02d028f7c086dd",
      "meta": {
        "profile": [ "https://www.medizininformatik-initiative.de/fhir/ext/modul-onko/StructureDefinition/mii-pr-onko-grading" ]
      },
      "identifier": [ {
        "system": "https://bzkf.github.io/obds-to-fhir/identifiers/grading-observation-id",
        "value": "280-grading"
      } ],
      "status": "final",
      "category": [ {
        "coding": [ {
          "system": "http://terminology.hl7.org/CodeSystem/observation-category",
          "code": "laboratory"
        } ]
      } ],
      "code": {
        "coding": [ {
          "system": "http://loinc.org",
          "version": "2.80",
          "code": "33732-9",
          "display": "Histology grade [Identifier] in Cancer specimen"
        }, {
          "system": "http://snomed.info/sct",
          "version": "http://snomed.info/sct/900000000000207008/version/20250501",
          "code": "371469007",
          "display": "Histologic grade of neoplasm (observable entity)"
        } ]
      },
      "subject": {
        "reference": "Patient/a02e16474896f1d528cac71f2c9b4c45ac3c9028e3a53fb414a1f7882991ee07"
      },
      "focus": [ {
        "reference": "Condition/5e4b2f91fa2ef84922f2aa3ce0e3524ccbec1ac2673a424917d1be5aa56c7571"
      } ],
      "effectiveDateTime": "2017-07-02",
      "valueCodeableConcept": {
        "coding": [ {
          "system": "https://www.medizininformatik-initiative.de/fhir/ext/modul-onko/CodeSystem/mii-cs-onko-grading",
          "code": "3"
        } ]
      },
      "specimen": {
        "reference": "Specimen/f67905a247bee2ed0a0a6388c4a820b19cd668be1482a0a2fc7df81c15576ffa"
      }
    },
    "request": {
      "method": "PUT",
      "url": "Observation/1e7d5d97cd0cd644942036d8c612b5421ccda0a6d0fd2c961d02d028f7c086dd"
    }
  }, {
    "fullUrl": "Observation/fd98bdb4e128c7c15c49f7ccb96ae8f93dd0a74644507cc4ba2943a17199fef3",
    "resource": {
      "resourceType": "Observation",
      "id": "fd98bdb4e128c7c15c49f7ccb96ae8f93dd0a74644507cc4ba2943a17199fef3",
      "meta": {
        "profile": [ "https://www.medizininformatik-initiative.de/fhir/ext/modul-onko/StructureDefinition/mii-pr-onko-weitere-klassifikationen" ]
      },
      "identifier": [ {
        "system": "https://bzkf.github.io/obds-to-fhir/identifiers/weitere-klassifikation-observation-id",
        "value": "10_1_DI_1-FIGO-2017-07-02"
      } ],
      "status": "final",
      "code": {
        "text": "FIGO"
      },
      "subject": {
        "reference": "Patient/a02e16474896f1d528cac71f2c9b4c45ac3c9028e3a53fb414a1f7882991ee07"
      },
      "focus": [ {
        "reference": "Condition/5e4b2f91fa2ef84922f2aa3ce0e3524ccbec1ac2673a424917d1be5aa56c7571"
      } ],
      "effectiveDateTime": "2017-07-02",
      "valueCodeableConcept": {
        "coding": [ {
          "code": "IIIB"
        } ]
      }
    },
    "request": {
      "method": "PUT",
      "url": "Observation/fd98bdb4e128c7c15c49f7ccb96ae8f93dd0a74644507cc4ba2943a17199fef3"
    }
  }, {
    "fullUrl": "List/1d23de097c0082ec9a1c3e7fb033ded2e5300bccb3b4b38360b2708d12fc5cf3",
    "resource": {
      "resourceType": "List",
      "id": "1d23de097c0082ec9a1c3e7fb033ded2e5300bccb3b4b38360b2708d12fc5cf3",
      "meta": {
        "profile": [ "https://www.medizininformatik-initiative.de/fhir/ext/modul-onko/StructureDefinition/mii-pr-onko-liste-evidenz-erstdiagnose" ]
      },
      "identifier": [ {
        "system": "https://bzkf.github.io/obds-to-fhir/identifiers/erstdiagnose-evidenz-list-id",
        "value": "10-1"
      } ],
      "status": "current",
      "mode": "snapshot",
      "subject": {
        "reference": "Patient/a02e16474896f1d528cac71f2c9b4c45ac3c9028e3a53fb414a1f7882991ee07"
      },
      "entry": [ {
        "item": {
          "reference": "Observation/6ff37297dfe99bf538549b388e8a9dad85756899519ef6e8e1775da5273bac8d"
        }
      }, {
        "item": {
          "reference": "Specimen/f67905a247bee2ed0a0a6388c4a820b19cd668be1482a0a2fc7df81c15576ffa"
        }
      }, {
        "item": {
          "reference": "Observation/1e7d5d97cd0cd644942036d8c612b5421ccda0a6d0fd2c961d02d028f7c086dd"
        }
      }, {
        "item": {
          "reference": "Observation/fd98bdb4e128c7c15c49f7ccb96ae8f93dd0a74644507cc4ba2943a17199fef3"
        }
      } ]
    },
    "request": {
      "method": "PUT",
      "url": "List/1d23de097c0082ec9a1c3e7fb033ded2e5300bccb3b4b38360b2708d12fc5cf3"
    }
  } ]
}