{
  "resourceType": "Bundle",
  "id": "66eab990c3ab4a1dac96eecfa7189a4455b4a4e9d39b1813fa20e17b8cc564d2",
  "type": "transaction",
  "entry": [ {
    "fullUrl": "Patient/66eab990c3ab4a1dac96eecfa7189a4455b4a4e9d39b1813fa20e17b8cc564d2",
    "resource": {
      "resourceType": "Patient",
      "id": "66eab990c3ab4a1dac96eecfa7189a4455b4a4e9d39b1813fa20e17b8cc564d2",
      "meta": {
        "profile": [ "https://www.medizininformatik-initiative.de/fhir/core/modul-person/StructureDefinition/PatientPseudonymisiert" ]
      },
      "identifier": [ {
        "type": {
          "coding": [ {
            "system": "http://terminology.hl7.org/CodeSystem/v2-0203",
            "code": "MR",
            "display": "Medical record number"
          }, {
            "system": "http://terminology.hl7.org/CodeSystem/v3-ObservationValue",
            "code": "PSEUDED",
            "display": "pseudonymized"
          } ]
        },
        "system": "https://bzkf.github.io/obds-to-fhir/identifiers/patient-id",
        "value": "30"
      } ],
      "gender": "male",
      "birthDate": "1951-10-15",
      "address": [ {
        "type": "both",
        "postalCode": "35390",
        "country": "DE"
      } ]
    },
    "request": {
      "method": "PUT",
      "url": "Patient/66eab990c3ab4a1dac96eecfa7189a4455b4a4e9d39b1813fa20e17b8cc564d2"
    }
  }, {
    "fullUrl": "Condition/413358315002752adf6281447c5ef51bc9e87334ca2c3476a04b098a42c9b510",
    "resource": {
      "resourceType": "Condition",
      "id": "413358315002752adf6281447c5ef51bc9e87334ca2c3476a04b098a42c9b510",
      "meta": {
        "profile": [ "https://www.medizininformatik-initiative.de/fhir/ext/modul-onko/StructureDefinition/mii-pr-onko-diagnose-primaertumor" ]
      },
      "extension": [ {
        "url": "https://www.medizininformatik-initiative.de/fhir/ext/modul-onko/StructureDefinition/mii-ex-onko-histology-morphology-behavior-icdo3",
        "valueCodeableConcept": {
          "coding": [ {
            "system": "http://terminology.hl7.org/CodeSystem/icd-o-3",
            "version": "31",
            "code": "9823/3"
          } ]
        }
      }, {
        "url": "http://hl7.org/fhir/StructureDefinition/condition-assertedDate",
        "valueDateTime": "2015-04-03"
      } ],
      "identifier": [ {
        "system": "https://bzkf.github.io/obds-to-fhir/identifiers/primaerdiagnose-id",
        "value": "301"
      } ],
      "verificationStatus": {
        "coding": [ {
          "system": "http://terminology.hl7.org/CodeSystem/condition-ver-status",
          "code": "confirmed"
        }, {
          "system": "https://www.medizininformatik-initiative.de/fhir/ext/modul-onko/CodeSystem/mii-cs-onko-primaertumor-diagnosesicherung",
          "code": "7"
        } ]
      },
      "code": {
        "coding": [ {
          "system": "http://fhir.de/CodeSystem/bfarm/icd-10-gm",
          "version": "2020",
          "code": "C91.1"
        } ]
      },
      "bodySite": [ {
        "coding": [ {
          "system": "http://terminology.hl7.org/CodeSystem/icd-o-3",
          "version": "33",
          "code": "C42.1"
        } ]
      }, {
        "coding": [ {
          "system": "https://www.medizininformatik-initiative.de/fhir/ext/modul-onko/CodeSystem/mii-cs-onko-seitenlokalisation",
          "code": "T"
        } ]
      } ],
      "subject": {
        "reference": "Patient/66eab990c3ab4a1dac96eecfa7189a4455b4a4e9d39b1813fa20e17b8cc564d2"
      },
      "recordedDate": "2024-02-16"
    },
    "request": {
      "method": "PUT",
      "url": "Condition/413358315002752adf6281447c5ef51bc9e87334ca2c3476a04b098a42c9b510"
    }
  }, {
    "fullUrl": "Observation/139e56223545fedbb4911f0ddddf852d9fd3459bfc9132989724318b5cbc9f7a",
    "resource": {
      "resourceType": "Observation",
      "id": "139e56223545fedbb4911f0ddddf852d9fd3459bfc9132989724318b5cbc9f7a",
      "meta": {
        "profile": [ "https://www.medizininformatik-initiative.de/fhir/ext/modul-onko/StructureDefinition/mii-pr-onko-allgemeiner-leistungszustand-ecog" ]
      },
      "identifier": [ {
        "system": "https://bzkf.github.io/obds-to-fhir/identifiers/allgemeiner-leistungszustand-ecog-id",
        "value": "ECOG-30_DIA_CLL_01"
      } ],
      "status": "final",
      "code": {
        "coding": [ {
          "system": "http://snomed.info/sct",
          "code": "423740007"
        } ]
      },
      "subject": {
        "reference": "Patient/66eab990c3ab4a1dac96eecfa7189a4455b4a4e9d39b1813fa20e17b8cc564d2"
      },
      "focus": [ {
        "reference": "Condition/413358315002752adf6281447c5ef51bc9e87334ca2c3476a04b098a42c9b510"
      } ],
      "effectiveDateTime": "2015-04-03",
      "valueCodeableConcept": {
        "coding": [ {
          "system": "https://www.medizininformatik-initiative.de/fhir/ext/modul-onko/CodeSystem/mii-cs-onko-allgemeiner-leistungszustand-ecog",
          "code": "0",
          "display": "Normale, uneingeschränkte Aktivität wie vor der Erkrankung (90 - 100 % nach Karnofsky)"
        } ]
      }
    },
    "request": {
      "method": "PUT",
      "url": "Observation/139e56223545fedbb4911f0ddddf852d9fd3459bfc9132989724318b5cbc9f7a"
    }
  }, {
    "fullUrl": "Procedure/468b48b84c08b2959fa1521508cb461ed2111042570286cc8183a6bd45576d3a",
    "resource": {
      "resourceType": "Procedure",
      "id": "468b48b84c08b2959fa1521508cb461ed2111042570286cc8183a6bd45576d3a",
      "meta": {
        "profile": [ "https://www.medizininformatik-initiative.de/fhir/ext/modul-onko/StructureDefinition/mii-pr-onko-systemische-therapie" ]
      },
      "extension": [ {
        "url": "https://www.medizininformatik-initiative.de/fhir/ext/modul-onko/StructureDefinition/mii-ex-onko-systemische-therapie-intention",
        "valueCodeableConcept": {
          "coding": [ {
            "system": "https://www.medizininformatik-initiative.de/fhir/ext/modul-onko/CodeSystem/mii-cs-onko-intention",
            "code": "S"
          } ]
        }
      } ],
      "identifier": [ {
        "system": "https://bzkf.github.io/obds-to-fhir/identifiers/systemische-therapie-procedure-id",
        "value": "992_syst1"
      } ],
      "status": "completed",
      "category": {
        "coding": [ {
          "system": "http://snomed.info/sct",
          "_code": {
            "extension": [ {
              "url": "http://hl7.org/fhir/StructureDefinition/data-absent-reason",
              "valueCode": "unknown"
            } ]
          }
        } ]
      },
      "code": {
        "coding": [ {
          "system": "http://snomed.info/sct",
          "code": "373818007"
        }, {
          "system": "https://www.medizininformatik-initiative.de/fhir/ext/modul-onko/CodeSystem/mii-cs-onko-therapie-typ",
          "code": "WW"
        } ]
      },
      "subject": {
        "reference": "Patient/66eab990c3ab4a1dac96eecfa7189a4455b4a4e9d39b1813fa20e17b8cc564d2"
      },
      "performedPeriod": {
        "start": "2015-07-15",
        "end": "2020-07-18"
      },
      "outcome": {
        "coding": [ {
          "system": "https://www.medizininformatik-initiative.de/fhir/ext/modul-onko/CodeSystem/mii-cs-therapie-grund-ende",
          "code": "P"
        } ]
      }
    },
    "request": {
      "method": "PUT",
      "url": "Procedure/468b48b84c08b2959fa1521508cb461ed2111042570286cc8183a6bd45576d3a"
    }
  }, {
    "fullUrl": "Procedure/20e22fcd38d26f04e68c47a89593d87bd215142f6188e41d490c3d7d8ec6c3cc",
    "resource": {
      "resourceType": "Procedure",
      "id": "20e22fcd38d26f04e68c47a89593d87bd215142f6188e41d490c3d7d8ec6c3cc",
      "meta": {
        "profile": [ "https://www.medizininformatik-initiative.de/fhir/ext/modul-onko/StructureDefinition/mii-pr-onko-systemische-therapie" ]
      },
      "extension": [ {
        "url": "https://www.medizininformatik-initiative.de/fhir/ext/modul-onko/StructureDefinition/mii-ex-onko-systemische-therapie-intention",
        "valueCodeableConcept": {
          "coding": [ {
            "system": "https://www.medizininformatik-initiative.de/fhir/ext/modul-onko/CodeSystem/mii-cs-onko-intention",
            "code": "K"
          } ]
        }
      } ],
      "identifier": [ {
        "system": "https://bzkf.github.io/obds-to-fhir/identifiers/systemische-therapie-procedure-id",
        "value": "993_syst1"
      } ],
      "status": "in-progress",
      "category": {
        "coding": [ {
          "system": "http://snomed.info/sct",
          "code": "18629005"
        } ]
      },
      "code": {
        "coding": [ {
          "system": "http://fhir.de/CodeSystem/bfarm/ops",
          "code": "8-54"
        }, {
          "system": "https://www.medizininformatik-initiative.de/fhir/ext/modul-onko/CodeSystem/mii-cs-onko-therapie-typ",
          "code": "CI"
        } ]
      },
      "subject": {
        "reference": "Patient/66eab990c3ab4a1dac96eecfa7189a4455b4a4e9d39b1813fa20e17b8cc564d2"
      },
      "performedPeriod": {
        "start": "2020-09-01"
      }
    },
    "request": {
      "method": "PUT",
      "url": "Procedure/20e22fcd38d26f04e68c47a89593d87bd215142f6188e41d490c3d7d8ec6c3cc"
    }
  }, {
    "fullUrl": "MedicationStatement/07a1de7ad1a2997a550d339c7f9213873a49a78b412fac091c8cd6a6d540372b",
    "resource": {
      "resourceType": "MedicationStatement",
      "id": "07a1de7ad1a2997a550d339c7f9213873a49a78b412fac091c8cd6a6d540372b",
      "meta": {
        "profile": [ "https://www.medizininformatik-initiative.de/fhir/core/modul-medikation/StructureDefinition/MedicationStatement" ]
      },
      "identifier": [ {
        "system": "https://bzkf.github.io/obds-to-fhir/identifiers/systemische-therapie-medication-statement-id",
        "value": "993_syst1_Cyclophosphamid_7ddd"
      } ],
      "partOf": [ {
        "reference": "Procedure/20e22fcd38d26f04e68c47a89593d87bd215142f6188e41d490c3d7d8ec6c3cc"
      } ],
      "status": "active",
      "medicationCodeableConcept": {
        "text": "Cyclophosphamid"
      },
      "subject": {
        "reference": "Patient/66eab990c3ab4a1dac96eecfa7189a4455b4a4e9d39b1813fa20e17b8cc564d2"
      },
      "effectivePeriod": {
        "start": "2020-09-01"
      }
    },
    "request": {
      "method": "PUT",
      "url": "MedicationStatement/07a1de7ad1a2997a550d339c7f9213873a49a78b412fac091c8cd6a6d540372b"
    }
  }, {
    "fullUrl": "MedicationStatement/78dccc6b6fd75b4e9729d6698f082d6f1c02af727eb088f98544046c5457f6bf",
    "resource": {
      "resourceType": "MedicationStatement",
      "id": "78dccc6b6fd75b4e9729d6698f082d6f1c02af727eb088f98544046c5457f6bf",
      "meta": {
        "profile": [ "https://www.medizininformatik-initiative.de/fhir/core/modul-medikation/StructureDefinition/MedicationStatement" ]
      },
      "identifier": [ {
        "system": "https://bzkf.github.io/obds-to-fhir/identifiers/systemische-therapie-medication-statement-id",
        "value": "993_syst1_Fludarabin_2b64"
      } ],
      "partOf": [ {
        "reference": "Procedure/20e22fcd38d26f04e68c47a89593d87bd215142f6188e41d490c3d7d8ec6c3cc"
      } ],
      "status": "active",
      "medicationCodeableConcept": {
        "text": "Fludarabin"
      },
      "subject": {
        "reference": "Patient/66eab990c3ab4a1dac96eecfa7189a4455b4a4e9d39b1813fa20e17b8cc564d2"
      },
      "effectivePeriod": {
        "start": "2020-09-01"
      }
    },
    "request": {
      "method": "PUT",
      "url": "MedicationStatement/78dccc6b6fd75b4e9729d6698f082d6f1c02af727eb088f98544046c5457f6bf"
    }
  }, {
    "fullUrl": "MedicationStatement/6ccec74dddb93f058b2d87d1a38533b0fa83713c69bac9872de8ce1636675134",
    "resource": {
      "resourceType": "MedicationStatement",
      "id": "6ccec74dddb93f058b2d87d1a38533b0fa83713c69bac9872de8ce1636675134",
      "meta": {
        "profile": [ "https://www.medizininformatik-initiative.de/fhir/core/modul-medikation/StructureDefinition/MedicationStatement" ]
      },
      "identifier": [ {
        "system": "https://bzkf.github.io/obds-to-fhir/identifiers/systemische-therapie-medication-statement-id",
        "value": "993_syst1_Rituximab_e082"
      } ],
      "partOf": [ {
        "reference": "Procedure/20e22fcd38d26f04e68c47a89593d87bd215142f6188e41d490c3d7d8ec6c3cc"
      } ],
      "status": "active",
      "medicationCodeableConcept": {
        "text": "Rituximab"
      },
      "subject": {
        "reference": "Patient/66eab990c3ab4a1dac96eecfa7189a4455b4a4e9d39b1813fa20e17b8cc564d2"
      },
      "effectivePeriod": {
        "start": "2020-09-01"
      }
    },
    "request": {
      "method": "PUT",
      "url": "MedicationStatement/6ccec74dddb93f058b2d87d1a38533b0fa83713c69bac9872de8ce1636675134"
    }
  } ]
}