{
  "resourceType": "Bundle",
  "id": "b7590139fce130878d3cc126a6eb694647f845c7825798f5fa9d6f2c03e42bcb",
  "type": "transaction",
  "entry": [ {
    "fullUrl": "Patient/b7590139fce130878d3cc126a6eb694647f845c7825798f5fa9d6f2c03e42bcb",
    "resource": {
      "resourceType": "Patient",
      "id": "b7590139fce130878d3cc126a6eb694647f845c7825798f5fa9d6f2c03e42bcb",
      "meta": {
        "profile": [ "https://www.medizininformatik-initiative.de/fhir/core/modul-person/StructureDefinition/PatientPseudonymisiert" ]
      },
      "identifier": [ {
        "type": {
          "coding": [ {
            "system": "http://terminology.hl7.org/CodeSystem/v2-0203",
            "code": "MR",
            "display": "Medical record number"
          }, {
            "system": "http://terminology.hl7.org/CodeSystem/v3-ObservationValue",
            "code": "PSEUDED",
            "display": "pseudonymized"
          } ]
        },
        "system": "https://bzkf.github.io/obds-to-fhir/identifiers/patient-id",
        "value": "11"
      } ],
      "gender": "male",
      "birthDate": "1951-01-07",
      "address": [ {
        "type": "both",
        "postalCode": "98765",
        "country": "DE"
      } ]
    },
    "request": {
      "method": "PUT",
      "url": "Patient/b7590139fce130878d3cc126a6eb694647f845c7825798f5fa9d6f2c03e42bcb"
    }
  }, {
    "fullUrl": "Condition/9500c9bdcd923c6cdbaf5045ddc3411d23197ab5988bf148dd38174a66cd2910",
    "resource": {
      "resourceType": "Condition",
      "id": "9500c9bdcd923c6cdbaf5045ddc3411d23197ab5988bf148dd38174a66cd2910",
      "meta": {
        "profile": [ "https://www.medizininformatik-initiative.de/fhir/ext/modul-onko/StructureDefinition/mii-pr-onko-diagnose-primaertumor" ]
      },
      "extension": [ {
        "url": "https://www.medizininformatik-initiative.de/fhir/ext/modul-onko/StructureDefinition/mii-ex-onko-histology-morphology-behavior-icdo3",
        "valueCodeableConcept": {
          "coding": [ {
            "system": "http://terminology.hl7.org/CodeSystem/icd-o-3",
            "version": "33",
            "code": "8140/3"
          } ]
        }
      }, {
        "url": "http://hl7.org/fhir/StructureDefinition/condition-assertedDate",
        "valueDateTime": "2021-07-08"
      } ],
      "identifier": [ {
        "system": "https://bzkf.github.io/obds-to-fhir/identifiers/primaerdiagnose-condition-id",
        "value": "11-111"
      } ],
      "verificationStatus": {
        "coding": [ {
          "system": "http://terminology.hl7.org/CodeSystem/condition-ver-status",
          "code": "confirmed"
        }, {
          "system": "https://www.medizininformatik-initiative.de/fhir/ext/modul-onko/CodeSystem/mii-cs-onko-primaertumor-diagnosesicherung",
          "code": "7"
        } ]
      },
      "code": {
        "coding": [ {
          "system": "http://fhir.de/CodeSystem/bfarm/icd-10-gm",
          "version": "2021",
          "code": "C61"
        } ]
      },
      "bodySite": [ {
        "coding": [ {
          "system": "http://terminology.hl7.org/CodeSystem/icd-o-3",
          "version": "33",
          "code": "C61.9"
        } ],
        "text": "Prostata"
      }, {
        "coding": [ {
          "system": "https://www.medizininformatik-initiative.de/fhir/ext/modul-onko/CodeSystem/mii-cs-onko-seitenlokalisation",
          "code": "T"
        }, {
          "system": "http://snomed.info/sct",
          "version": "http://snomed.info/sct/900000000000207008/version/20250501",
          "code": "385432009",
          "display": "Not applicable (qualifier value)"
        } ]
      } ],
      "subject": {
        "reference": "Patient/b7590139fce130878d3cc126a6eb694647f845c7825798f5fa9d6f2c03e42bcb"
      },
      "recordedDate": "2024-02-16",
      "evidence": [ {
        "detail": [ {
          "reference": "List/6384c15ef79a9610a5b9f6f4b53e68292d378e87cc0454c2b30d77809e5d9641"
        } ]
      } ]
    },
    "request": {
      "method": "PUT",
      "url": "Condition/9500c9bdcd923c6cdbaf5045ddc3411d23197ab5988bf148dd38174a66cd2910"
    }
  }, {
    "fullUrl": "Procedure/067bfc7458c9021869fe9907a7615a9b4da8b916a7172127b65ac15262eb341c",
    "resource": {
      "resourceType": "Procedure",
      "id": "067bfc7458c9021869fe9907a7615a9b4da8b916a7172127b65ac15262eb341c",
      "meta": {
        "profile": [ "https://www.medizininformatik-initiative.de/fhir/ext/modul-onko/StructureDefinition/mii-pr-onko-operation" ]
      },
      "extension": [ {
        "url": "https://www.medizininformatik-initiative.de/fhir/ext/modul-onko/StructureDefinition/mii-ex-onko-operation-intention",
        "valueCodeableConcept": {
          "coding": [ {
            "system": "https://www.medizininformatik-initiative.de/fhir/ext/modul-onko/CodeSystem/mii-cs-onko-intention",
            "code": "K"
          } ]
        }
      } ],
      "identifier": [ {
        "system": "https://bzkf.github.io/obds-to-fhir/identifiers/operation-procedure-id",
        "value": "151-5-604-02"
      } ],
      "status": "completed",
      "category": {
        "coding": [ {
          "system": "http://snomed.info/sct",
          "version": "http://snomed.info/sct/900000000000207008/version/20250501",
          "code": "387713003",
          "display": "Surgical procedure"
        } ]
      },
      "code": {
        "coding": [ {
          "system": "http://fhir.de/CodeSystem/bfarm/ops",
          "version": "2021",
          "code": "5-604.02"
        } ]
      },
      "subject": {
        "reference": "Patient/b7590139fce130878d3cc126a6eb694647f845c7825798f5fa9d6f2c03e42bcb"
      },
      "performedDateTime": "2021-09-09",
      "reasonReference": [ {
        "reference": "Condition/9500c9bdcd923c6cdbaf5045ddc3411d23197ab5988bf148dd38174a66cd2910"
      } ],
      "outcome": {
        "coding": [ {
          "system": "https://www.medizininformatik-initiative.de/fhir/ext/modul-onko/CodeSystem/mii-cs-onko-residualstatus",
          "code": "R0"
        } ]
      }
    },
    "request": {
      "method": "PUT",
      "url": "Procedure/067bfc7458c9021869fe9907a7615a9b4da8b916a7172127b65ac15262eb341c"
    }
  }, {
    "fullUrl": "Observation/490d7aa1400ec9cb226a135fc7580a254e670c6f530d1b8ec125e84d1f6cf151",
    "resource": {
      "resourceType": "Observation",
      "id": "490d7aa1400ec9cb226a135fc7580a254e670c6f530d1b8ec125e84d1f6cf151",
      "identifier": [ {
        "system": "https://bzkf.github.io/obds-to-fhir/identifiers/residualstatus-observation-id",
        "value": "151"
      } ],
      "status": "final",
      "code": {
        "coding": [ {
          "system": "http://loinc.org",
          "version": "2.80",
          "code": "84892-9",
          "display": "Residual tumor classification [Type] in Cancer specimen"
        } ]
      },
      "subject": {
        "reference": "Patient/b7590139fce130878d3cc126a6eb694647f845c7825798f5fa9d6f2c03e42bcb"
      },
      "focus": [ {
        "reference": "Condition/9500c9bdcd923c6cdbaf5045ddc3411d23197ab5988bf148dd38174a66cd2910"
      } ],
      "effectiveDateTime": "2021-09-09",
      "valueCodeableConcept": {
        "coding": [ {
          "system": "https://www.medizininformatik-initiative.de/fhir/ext/modul-onko/CodeSystem/mii-cs-onko-residualstatus",
          "code": "R0"
        } ]
      }
    },
    "request": {
      "method": "PUT",
      "url": "Observation/490d7aa1400ec9cb226a135fc7580a254e670c6f530d1b8ec125e84d1f6cf151"
    }
  }, {
    "fullUrl": "Observation/1cc8b3c99ff26a2d0087c1532eddb2620d33cda9b05bf331995f50dacaeaef66",
    "resource": {
      "resourceType": "Observation",
      "id": "1cc8b3c99ff26a2d0087c1532eddb2620d33cda9b05bf331995f50dacaeaef66",
      "identifier": [ {
        "system": "https://bzkf.github.io/obds-to-fhir/identifiers/gleason-score-observation-id",
        "value": "gleason-score-11_1_OP_1"
      } ],
      "status": "final",
      "code": {
        "coding": [ {
          "system": "http://snomed.info/sct",
          "version": "http://snomed.info/sct/900000000000207008/version/20250501",
          "code": "385377005",
          "display": "Gleason grade finding for prostatic cancer (finding)"
        } ]
      },
      "subject": {
        "reference": "Patient/b7590139fce130878d3cc126a6eb694647f845c7825798f5fa9d6f2c03e42bcb"
      },
      "focus": [ {
        "reference": "Condition/9500c9bdcd923c6cdbaf5045ddc3411d23197ab5988bf148dd38174a66cd2910"
      } ],
      "effectiveDateTime": "2021-09-09",
      "valueCodeableConcept": {
        "coding": [ {
          "extension": [ {
            "url": "http://hl7.org/fhir/StructureDefinition/ordinalValue",
            "valueDecimal": 8
          } ],
          "system": "http://snomed.info/sct",
          "version": "http://snomed.info/sct/900000000000207008/version/20250501",
          "code": "33013007"
        } ],
        "text": "8"
      },
      "method": {
        "coding": [ {
          "system": "http://snomed.info/sct",
          "version": "http://snomed.info/sct/900000000000207008/version/20250501",
          "code": "65801008",
          "display": "Excision (procedure)"
        } ]
      },
      "component": [ {
        "code": {
          "coding": [ {
            "system": "http://snomed.info/sct",
            "version": "http://snomed.info/sct/900000000000207008/version/20250501",
            "code": "384994009",
            "display": "Primary Gleason pattern"
          } ]
        },
        "valueInteger": 4
      }, {
        "code": {
          "coding": [ {
            "system": "http://snomed.info/sct",
            "version": "http://snomed.info/sct/900000000000207008/version/20250501",
            "code": "384995005",
            "display": "Secondary Gleason pattern"
          } ]
        },
        "valueInteger": 4
      } ]
    },
    "request": {
      "method": "PUT",
      "url": "Observation/1cc8b3c99ff26a2d0087c1532eddb2620d33cda9b05bf331995f50dacaeaef66"
    }
  }, {
    "fullUrl": "Procedure/c67a22480caccbb4d0bdaf182914e0df6b8e5aa27e4f4f736178fa6dda44d061",
    "resource": {
      "resourceType": "Procedure",
      "id": "c67a22480caccbb4d0bdaf182914e0df6b8e5aa27e4f4f736178fa6dda44d061",
      "meta": {
        "profile": [ "https://www.medizininformatik-initiative.de/fhir/ext/modul-onko/StructureDefinition/mii-pr-onko-systemische-therapie" ]
      },
      "extension": [ {
        "url": "https://www.medizininformatik-initiative.de/fhir/ext/modul-onko/StructureDefinition/mii-ex-onko-systemische-therapie-intention",
        "valueCodeableConcept": {
          "coding": [ {
            "system": "https://www.medizininformatik-initiative.de/fhir/ext/modul-onko/CodeSystem/mii-cs-onko-intention",
            "code": "K"
          } ]
        }
      }, {
        "url": "https://www.medizininformatik-initiative.de/fhir/ext/modul-onko/StructureDefinition/mii-ex-onko-strahlentherapie-stellungzurop",
        "valueCodeableConcept": {
          "coding": [ {
            "system": "https://www.medizininformatik-initiative.de/fhir/ext/modul-onko/CodeSystem/mii-cs-therapie-stellungzurop",
            "code": "O"
          } ]
        }
      } ],
      "identifier": [ {
        "system": "https://bzkf.github.io/obds-to-fhir/identifiers/systemische-therapie-procedure-id",
        "value": "11_1_Innere-1"
      } ],
      "status": "in-progress",
      "category": {
        "coding": [ {
          "system": "http://snomed.info/sct",
          "version": "http://snomed.info/sct/900000000000207008/version/20250501",
          "code": "18629005",
          "display": "Administration of drug or medicament (procedure)"
        } ]
      },
      "code": {
        "coding": [ {
          "system": "http://fhir.de/CodeSystem/bfarm/ops",
          "version": "2025",
          "code": "6-00",
          "display": "Applikation von Medikamenten"
        }, {
          "system": "https://www.medizininformatik-initiative.de/fhir/ext/modul-onko/CodeSystem/mii-cs-onko-therapie-typ",
          "code": "HO"
        } ]
      },
      "subject": {
        "reference": "Patient/b7590139fce130878d3cc126a6eb694647f845c7825798f5fa9d6f2c03e42bcb"
      },
      "performedPeriod": {
        "start": "2021-11-08"
      }
    },
    "request": {
      "method": "PUT",
      "url": "Procedure/c67a22480caccbb4d0bdaf182914e0df6b8e5aa27e4f4f736178fa6dda44d061"
    }
  }, {
    "fullUrl": "MedicationStatement/d1035b7be20579576aa95b27403eb90ca6bc37bbffe0e4ec75c23d4d8e4cc0a9",
    "resource": {
      "resourceType": "MedicationStatement",
      "id": "d1035b7be20579576aa95b27403eb90ca6bc37bbffe0e4ec75c23d4d8e4cc0a9",
      "meta": {
        "profile": [ "https://www.medizininformatik-initiative.de/fhir/ext/modul-onko/StructureDefinition/mii-pr-onko-systemische-therapie-medikation" ]
      },
      "identifier": [ {
        "system": "https://bzkf.github.io/obds-to-fhir/identifiers/systemische-therapie-medication-statement-id",
        "value": "11_1_Innere-1-Bicalutamid_fa96"
      } ],
      "partOf": [ {
        "reference": "Procedure/c67a22480caccbb4d0bdaf182914e0df6b8e5aa27e4f4f736178fa6dda44d061"
      } ],
      "status": "active",
      "medicationCodeableConcept": {
        "text": "Bicalutamid"
      },
      "subject": {
        "reference": "Patient/b7590139fce130878d3cc126a6eb694647f845c7825798f5fa9d6f2c03e42bcb"
      },
      "effectivePeriod": {
        "start": "2021-11-08"
      }
    },
    "request": {
      "method": "PUT",
      "url": "MedicationStatement/d1035b7be20579576aa95b27403eb90ca6bc37bbffe0e4ec75c23d4d8e4cc0a9"
    }
  }, {
    "fullUrl": "AdverseEvent/a8145ea75a1a24ec05e87c2c996e497aacf9ccb05e84a7498634b27c78b815b5",
    "resource": {
      "resourceType": "AdverseEvent",
      "id": "a8145ea75a1a24ec05e87c2c996e497aacf9ccb05e84a7498634b27c78b815b5",
      "meta": {
        "profile": [ "https://www.medizininformatik-initiative.de/fhir/ext/modul-onko/StructureDefinition/mii-pr-onko-nebenwirkung-adverse-event" ]
      },
      "identifier": {
        "system": "https://bzkf.github.io/obds-to-fhir/identifiers/nebenwirkung-adverse-event-id",
        "value": "mii-pr-onko-nebenwirkung-11_1_Innere-1-Grad-maximal-2-unbekannt"
      },
      "actuality": "actual",
      "event": {
        "extension": [ {
          "url": "http://hl7.org/fhir/StructureDefinition/data-absent-reason",
          "valueCode": "not-applicable"
        } ]
      },
      "subject": {
        "reference": "Patient/b7590139fce130878d3cc126a6eb694647f845c7825798f5fa9d6f2c03e42bcb"
      },
      "seriousness": {
        "coding": [ {
          "system": "https://www.medizininformatik-initiative.de/fhir/ext/modul-onko/CodeSystem/mii-cs-onko-nebenwirkung-ctcae-grad",
          "code": "U"
        } ]
      },
      "suspectEntity": [ {
        "instance": {
          "reference": "Procedure/c67a22480caccbb4d0bdaf182914e0df6b8e5aa27e4f4f736178fa6dda44d061"
        }
      } ]
    },
    "request": {
      "method": "PUT",
      "url": "AdverseEvent/a8145ea75a1a24ec05e87c2c996e497aacf9ccb05e84a7498634b27c78b815b5"
    }
  }, {
    "fullUrl": "Procedure/ecdf6893954d92d42dd2fae68b7a7d7d0c057b97cd28aee26d840928c26171a0",
    "resource": {
      "resourceType": "Procedure",
      "id": "ecdf6893954d92d42dd2fae68b7a7d7d0c057b97cd28aee26d840928c26171a0",
      "meta": {
        "profile": [ "https://www.medizininformatik-initiative.de/fhir/ext/modul-onko/StructureDefinition/mii-pr-onko-strahlentherapie" ]
      },
      "extension": [ {
        "url": "https://www.medizininformatik-initiative.de/fhir/ext/modul-onko/StructureDefinition/mii-ex-onko-strahlentherapie-intention",
        "valueCodeableConcept": {
          "coding": [ {
            "system": "https://www.medizininformatik-initiative.de/fhir/ext/modul-onko/CodeSystem/mii-cs-onko-intention",
            "code": "K"
          } ]
        }
      }, {
        "url": "https://www.medizininformatik-initiative.de/fhir/ext/modul-onko/StructureDefinition/mii-ex-onko-strahlentherapie-stellungzurop",
        "valueCodeableConcept": {
          "coding": [ {
            "system": "https://www.medizininformatik-initiative.de/fhir/ext/modul-onko/CodeSystem/mii-cs-therapie-stellungzurop",
            "code": "O"
          } ]
        }
      } ],
      "identifier": [ {
        "system": "https://bzkf.github.io/obds-to-fhir/identifiers/strahlentherapie-procedure-id",
        "value": "11_1_Strahlen-1"
      } ],
      "status": "in-progress",
      "category": {
        "coding": [ {
          "system": "http://snomed.info/sct",
          "version": "http://snomed.info/sct/900000000000207008/version/20250501",
          "code": "1287742003",
          "display": "Radiotherapy (procedure)"
        } ]
      },
      "code": {
        "coding": [ {
          "system": "http://fhir.de/CodeSystem/bfarm/ops",
          "version": "2025",
          "code": "8-52",
          "display": "Strahlentherapie"
        } ]
      },
      "subject": {
        "reference": "Patient/b7590139fce130878d3cc126a6eb694647f845c7825798f5fa9d6f2c03e42bcb"
      },
      "performedPeriod": {
        "start": "2022-03-01"
      },
      "reasonReference": [ {
        "reference": "Condition/9500c9bdcd923c6cdbaf5045ddc3411d23197ab5988bf148dd38174a66cd2910"
      } ]
    },
    "request": {
      "method": "PUT",
      "url": "Procedure/ecdf6893954d92d42dd2fae68b7a7d7d0c057b97cd28aee26d840928c26171a0"
    }
  }, {
    "fullUrl": "Procedure/c4bf6e9a288103d8de363a3390ad93d102e09999cdf72ea113ee9b40dd7935ac",
    "resource": {
      "resourceType": "Procedure",
      "id": "c4bf6e9a288103d8de363a3390ad93d102e09999cdf72ea113ee9b40dd7935ac",
      "meta": {
        "profile": [ "https://www.medizininformatik-initiative.de/fhir/ext/modul-onko/StructureDefinition/mii-pr-onko-strahlentherapie-bestrahlung-strahlentherapie" ]
      },
      "extension": [ {
        "url": "https://www.medizininformatik-initiative.de/fhir/ext/modul-onko/StructureDefinition/mii-ex-onko-strahlentherapie-bestrahlung-einzeldosis",
        "valueQuantity": {
          "value": 1.8,
          "unit": "Gy",
          "system": "http://unitsofmeasure.org",
          "code": "Gy"
        }
      } ],
      "identifier": [ {
        "system": "https://bzkf.github.io/obds-to-fhir/identifiers/strahlentherapie-bestrahlung-procedure-id",
        "value": "11_1_Strahlen-1-0"
      } ],
      "partOf": [ {
        "reference": "Procedure/ecdf6893954d92d42dd2fae68b7a7d7d0c057b97cd28aee26d840928c26171a0"
      } ],
      "status": "in-progress",
      "category": {
        "coding": [ {
          "system": "http://snomed.info/sct",
          "version": "http://snomed.info/sct/900000000000207008/version/20250501",
          "code": "1287742003",
          "display": "Radiotherapy (procedure)"
        } ]
      },
      "code": {
        "coding": [ {
          "system": "http://fhir.de/CodeSystem/bfarm/ops",
          "version": "2025",
          "code": "8-52",
          "display": "Strahlentherapie"
        } ]
      },
      "subject": {
        "reference": "Patient/b7590139fce130878d3cc126a6eb694647f845c7825798f5fa9d6f2c03e42bcb"
      },
      "performedPeriod": {
        "start": "2022-03-01"
      },
      "bodySite": [ {
        "extension": [ {
          "url": "https://www.medizininformatik-initiative.de/fhir/ext/modul-onko/StructureDefinition/mii-ex-onko-strahlentherapie-bestrahlung-seitenlokalisation",
          "valueCodeableConcept": {
            "coding": [ {
              "system": "https://www.medizininformatik-initiative.de/fhir/ext/modul-onko/CodeSystem/mii-cs-onko-seitenlokalisation",
              "code": "T"
            } ]
          }
        } ],
        "coding": [ {
          "system": "https://www.medizininformatik-initiative.de/fhir/ext/modul-onko/CodeSystem/mii-cs-onko-strahlentherapie-zielgebiet",
          "code": "5.4.-"
        } ]
      } ],
      "usedCode": [ {
        "coding": [ {
          "system": "https://www.medizininformatik-initiative.de/fhir/ext/modul-onko/CodeSystem/mii-cs-onko-strahlentherapie-strahlenart",
          "code": "NE"
        } ]
      }, {
        "coding": [ {
          "system": "https://www.medizininformatik-initiative.de/fhir/ext/modul-onko/CodeSystem/mii-cs-onko-strahlentherapie-applikationsart",
          "code": "PRCN-ST4D"
        } ]
      } ]
    },
    "request": {
      "method": "PUT",
      "url": "Procedure/c4bf6e9a288103d8de363a3390ad93d102e09999cdf72ea113ee9b40dd7935ac"
    }
  }, {
    "fullUrl": "AdverseEvent/4de62624d712099b4bcc1a70f58269fa672f494c4a01d06dc1a5e05ad9c10f9c",
    "resource": {
      "resourceType": "AdverseEvent",
      "id": "4de62624d712099b4bcc1a70f58269fa672f494c4a01d06dc1a5e05ad9c10f9c",
      "meta": {
        "profile": [ "https://www.medizininformatik-initiative.de/fhir/ext/modul-onko/StructureDefinition/mii-pr-onko-nebenwirkung-adverse-event" ]
      },
      "identifier": {
        "system": "https://bzkf.github.io/obds-to-fhir/identifiers/nebenwirkung-adverse-event-id",
        "value": "mii-pr-onko-nebenwirkung-11_1_Strahlen-1-Grad-maximal-2-unbekannt"
      },
      "actuality": "actual",
      "event": {
        "extension": [ {
          "url": "http://hl7.org/fhir/StructureDefinition/data-absent-reason",
          "valueCode": "not-applicable"
        } ]
      },
      "subject": {
        "reference": "Patient/b7590139fce130878d3cc126a6eb694647f845c7825798f5fa9d6f2c03e42bcb"
      },
      "seriousness": {
        "coding": [ {
          "system": "https://www.medizininformatik-initiative.de/fhir/ext/modul-onko/CodeSystem/mii-cs-onko-nebenwirkung-ctcae-grad",
          "code": "U"
        } ]
      },
      "suspectEntity": [ {
        "instance": {
          "reference": "Procedure/ecdf6893954d92d42dd2fae68b7a7d7d0c057b97cd28aee26d840928c26171a0"
        }
      } ]
    },
    "request": {
      "method": "PUT",
      "url": "AdverseEvent/4de62624d712099b4bcc1a70f58269fa672f494c4a01d06dc1a5e05ad9c10f9c"
    }
  }, {
    "fullUrl": "Condition/25b51cb24c996e4f33e49aaeff58ecda1cf832ee83a01e90c6b795702a10dbac",
    "resource": {
      "resourceType": "Condition",
      "id": "25b51cb24c996e4f33e49aaeff58ecda1cf832ee83a01e90c6b795702a10dbac",
      "meta": {
        "profile": [ "https://www.medizininformatik-initiative.de/fhir/ext/modul-onko/StructureDefinition/mii-pr-onko-diagnose-primaertumor" ]
      },
      "extension": [ {
        "url": "https://www.medizininformatik-initiative.de/fhir/ext/modul-onko/StructureDefinition/mii-ex-onko-histology-morphology-behavior-icdo3",
        "valueCodeableConcept": {
          "coding": [ {
            "system": "http://terminology.hl7.org/CodeSystem/icd-o-3",
            "version": "32",
            "code": "9823/3"
          } ],
          "text": "Chronisch lymphatische Leukämie"
        }
      }, {
        "url": "http://hl7.org/fhir/StructureDefinition/condition-assertedDate",
        "valueDateTime": "2017-05-05"
      } ],
      "identifier": [ {
        "system": "https://bzkf.github.io/obds-to-fhir/identifiers/primaerdiagnose-condition-id",
        "value": "11-112"
      } ],
      "verificationStatus": {
        "coding": [ {
          "system": "http://terminology.hl7.org/CodeSystem/condition-ver-status",
          "code": "confirmed"
        }, {
          "system": "https://www.medizininformatik-initiative.de/fhir/ext/modul-onko/CodeSystem/mii-cs-onko-primaertumor-diagnosesicherung",
          "code": "7"
        } ]
      },
      "code": {
        "coding": [ {
          "system": "http://fhir.de/CodeSystem/bfarm/icd-10-gm",
          "version": "2017",
          "code": "C91.1"
        } ]
      },
      "bodySite": [ {
        "coding": [ {
          "system": "http://terminology.hl7.org/CodeSystem/icd-o-3",
          "version": "32",
          "code": "C42.1"
        } ],
        "text": "Knochenmark"
      }, {
        "coding": [ {
          "system": "https://www.medizininformatik-initiative.de/fhir/ext/modul-onko/CodeSystem/mii-cs-onko-seitenlokalisation",
          "code": "T"
        }, {
          "system": "http://snomed.info/sct",
          "version": "http://snomed.info/sct/900000000000207008/version/20250501",
          "code": "385432009",
          "display": "Not applicable (qualifier value)"
        } ]
      } ],
      "subject": {
        "reference": "Patient/b7590139fce130878d3cc126a6eb694647f845c7825798f5fa9d6f2c03e42bcb"
      },
      "recordedDate": "2024-02-16",
      "evidence": [ {
        "detail": [ {
          "reference": "List/68f894434b99e7de5b5769c52326baf79d0e07ab4ff8e7912e25a3689cffdb7d"
        } ]
      } ]
    },
    "request": {
      "method": "PUT",
      "url": "Condition/25b51cb24c996e4f33e49aaeff58ecda1cf832ee83a01e90c6b795702a10dbac"
    }
  }, {
    "fullUrl": "Observation/7dae07014f3ff753c4a0a5852831d8478dacb41bd0de764c1dacc08439536a7e",
    "resource": {
      "resourceType": "Observation",
      "id": "7dae07014f3ff753c4a0a5852831d8478dacb41bd0de764c1dacc08439536a7e",
      "meta": {
        "profile": [ "https://www.medizininformatik-initiative.de/fhir/ext/modul-onko/StructureDefinition/mii-pr-onko-verlauf" ]
      },
      "identifier": [ {
        "value": "1-1-1"
      } ],
      "status": "final",
      "code": {
        "coding": [ {
          "system": "http://snomed.info/sct",
          "version": "http://snomed.info/sct/900000000000207008/version/20250501",
          "code": "396432002",
          "display": "Status of regression of tumor (observable entity)"
        } ]
      },
      "subject": {
        "reference": "Patient/b7590139fce130878d3cc126a6eb694647f845c7825798f5fa9d6f2c03e42bcb"
      },
      "focus": [ {
        "reference": "Condition/25b51cb24c996e4f33e49aaeff58ecda1cf832ee83a01e90c6b795702a10dbac"
      } ],
      "effectiveDateTime": "2020-07-18",
      "valueCodeableConcept": {
        "coding": [ {
          "system": "https://www.medizininformatik-initiative.de/fhir/ext/modul-onko/CodeSystem/mii-cs-onko-verlauf-gesamtbeurteilung",
          "code": "K",
          "display": "keine Änderung"
        } ]
      }
    },
    "request": {
      "method": "PUT",
      "url": "Observation/7dae07014f3ff753c4a0a5852831d8478dacb41bd0de764c1dacc08439536a7e"
    }
  }, {
    "fullUrl": "Observation/c791988cc651bdc32dec4fa206d3cc3176eee42aa825ab695257d86a9d8ae8d6",
    "resource": {
      "resourceType": "Observation",
      "id": "c791988cc651bdc32dec4fa206d3cc3176eee42aa825ab695257d86a9d8ae8d6",
      "meta": {
        "profile": [ "https://www.medizininformatik-initiative.de/fhir/ext/modul-onko/StructureDefinition/mii-pr-onko-allgemeiner-leistungszustand-ecog" ]
      },
      "identifier": [ {
        "system": "https://bzkf.github.io/obds-to-fhir/identifiers/allgemeiner-leistungszustand-ecog-id",
        "value": "ECOG-11_2_VE_1"
      } ],
      "status": "final",
      "code": {
        "coding": [ {
          "system": "http://snomed.info/sct",
          "version": "http://snomed.info/sct/900000000000207008/version/20250501",
          "code": "423740007",
          "display": "Eastern Cooperative Oncology Group performance status (observable entity)"
        } ]
      },
      "subject": {
        "reference": "Patient/b7590139fce130878d3cc126a6eb694647f845c7825798f5fa9d6f2c03e42bcb"
      },
      "focus": [ {
        "reference": "Condition/25b51cb24c996e4f33e49aaeff58ecda1cf832ee83a01e90c6b795702a10dbac"
      } ],
      "effectiveDateTime": "2020-07-18",
      "valueCodeableConcept": {
        "coding": [ {
          "system": "https://www.medizininformatik-initiative.de/fhir/ext/modul-onko/CodeSystem/mii-cs-onko-allgemeiner-leistungszustand-ecog",
          "code": "0",
          "display": "Normale, uneingeschränkte Aktivität wie vor der Erkrankung (90 - 100 % nach Karnofsky)"
        } ]
      }
    },
    "request": {
      "method": "PUT",
      "url": "Observation/c791988cc651bdc32dec4fa206d3cc3176eee42aa825ab695257d86a9d8ae8d6"
    }
  }, {
    "fullUrl": "Observation/d2e87dec0901c3de9b134651eeccbc6d6816117e1c379575ee87ee0a3b0bebc9",
    "resource": {
      "resourceType": "Observation",
      "id": "d2e87dec0901c3de9b134651eeccbc6d6816117e1c379575ee87ee0a3b0bebc9",
      "meta": {
        "profile": [ "https://www.medizininformatik-initiative.de/fhir/ext/modul-onko/StructureDefinition/mii-pr-onko-verlauf" ]
      },
      "identifier": [ {
        "value": "164"
      } ],
      "status": "final",
      "code": {
        "coding": [ {
          "system": "http://snomed.info/sct",
          "version": "http://snomed.info/sct/900000000000207008/version/20250501",
          "code": "396432002",
          "display": "Status of regression of tumor (observable entity)"
        } ]
      },
      "subject": {
        "reference": "Patient/b7590139fce130878d3cc126a6eb694647f845c7825798f5fa9d6f2c03e42bcb"
      },
      "focus": [ {
        "reference": "Condition/9500c9bdcd923c6cdbaf5045ddc3411d23197ab5988bf148dd38174a66cd2910"
      } ],
      "effectiveDateTime": "2022-01-20",
      "valueCodeableConcept": {
        "coding": [ {
          "system": "https://www.medizininformatik-initiative.de/fhir/ext/modul-onko/CodeSystem/mii-cs-onko-verlauf-gesamtbeurteilung",
          "code": "Y",
          "display": "Rezidiv"
        } ]
      },
      "component": [ {
        "code": {
          "coding": [ {
            "system": "http://snomed.info/sct",
            "version": "http://snomed.info/sct/900000000000207008/version/20250501",
            "code": "277062004",
            "display": "Status des Residualtumors"
          } ]
        },
        "valueCodeableConcept": {
          "coding": [ {
            "system": "https://www.medizininformatik-initiative.de/fhir/ext/modul-onko/CodeSystem/mii-cs-onko-verlauf-primaertumor",
            "code": "R",
            "display": "Lokalrezidiv"
          } ]
        }
      }, {
        "code": {
          "coding": [ {
            "system": "http://snomed.info/sct",
            "version": "http://snomed.info/sct/900000000000207008/version/20250501",
            "code": "399656008",
            "display": "Status of tumor metastasis to regional lymph nodes (observable entity)"
          } ]
        },
        "valueCodeableConcept": {
          "coding": [ {
            "system": "https://www.medizininformatik-initiative.de/fhir/ext/modul-onko/CodeSystem/mii-cs-onko-verlauf-lymphknoten",
            "code": "K",
            "display": "kein Lymphknotenbefall nachweisbar"
          } ]
        }
      }, {
        "code": {
          "coding": [ {
            "system": "http://snomed.info/sct",
            "version": "http://snomed.info/sct/900000000000207008/version/20250501",
            "code": "399608002",
            "display": "Status of distant metastasis (observable entity)"
          } ]
        },
        "valueCodeableConcept": {
          "coding": [ {
            "system": "https://www.medizininformatik-initiative.de/fhir/ext/modul-onko/CodeSystem/mii-cs-onko-verlauf-fernmetastasen",
            "code": "K",
            "display": "keine Fernmetastasen nachweisbar"
          } ]
        }
      } ]
    },
    "request": {
      "method": "PUT",
      "url": "Observation/d2e87dec0901c3de9b134651eeccbc6d6816117e1c379575ee87ee0a3b0bebc9"
    }
  }, {
    "fullUrl": "Observation/b025f75c3b12ce095ccce95e1512174ca609d8cb2eac70487d315bc39aab4420",
    "resource": {
      "resourceType": "Observation",
      "id": "b025f75c3b12ce095ccce95e1512174ca609d8cb2eac70487d315bc39aab4420",
      "meta": {
        "profile": [ "https://www.medizininformatik-initiative.de/fhir/ext/modul-onko/StructureDefinition/mii-pr-onko-allgemeiner-leistungszustand-ecog" ]
      },
      "identifier": [ {
        "system": "https://bzkf.github.io/obds-to-fhir/identifiers/allgemeiner-leistungszustand-ecog-id",
        "value": "ECOG-11_1_VE_1"
      } ],
      "status": "final",
      "code": {
        "coding": [ {
          "system": "http://snomed.info/sct",
          "version": "http://snomed.info/sct/900000000000207008/version/20250501",
          "code": "423740007",
          "display": "Eastern Cooperative Oncology Group performance status (observable entity)"
        } ]
      },
      "subject": {
        "reference": "Patient/b7590139fce130878d3cc126a6eb694647f845c7825798f5fa9d6f2c03e42bcb"
      },
      "focus": [ {
        "reference": "Condition/9500c9bdcd923c6cdbaf5045ddc3411d23197ab5988bf148dd38174a66cd2910"
      } ],
      "effectiveDateTime": "2022-01-20",
      "valueCodeableConcept": {
        "coding": [ {
          "system": "https://www.medizininformatik-initiative.de/fhir/ext/modul-onko/CodeSystem/mii-cs-onko-allgemeiner-leistungszustand-ecog",
          "code": "1",
          "display": "Einschränkung bei körperlicher Anstrengung, aber gehfähig; leichte körperliche Arbeit bzw. Arbeit im Sitzen (z. B. leichte Hausarbeit oder Büroarbeit) möglich (70 - 80 % nach Karnofsky)"
        } ]
      }
    },
    "request": {
      "method": "PUT",
      "url": "Observation/b025f75c3b12ce095ccce95e1512174ca609d8cb2eac70487d315bc39aab4420"
    }
  }, {
    "fullUrl": "Observation/313170f813148b19389bcc4133b10d2a7642c870555df35625dec1f8fce25f78",
    "resource": {
      "resourceType": "Observation",
      "id": "313170f813148b19389bcc4133b10d2a7642c870555df35625dec1f8fce25f78",
      "identifier": [ {
        "system": "https://bzkf.github.io/obds-to-fhir/identifiers/gleason-score-observation-id",
        "value": "gleason-score-11_1_VE_1"
      } ],
      "status": "final",
      "code": {
        "coding": [ {
          "system": "http://snomed.info/sct",
          "version": "http://snomed.info/sct/900000000000207008/version/20250501",
          "code": "385377005",
          "display": "Gleason grade finding for prostatic cancer (finding)"
        } ]
      },
      "subject": {
        "reference": "Patient/b7590139fce130878d3cc126a6eb694647f845c7825798f5fa9d6f2c03e42bcb"
      },
      "focus": [ {
        "reference": "Condition/9500c9bdcd923c6cdbaf5045ddc3411d23197ab5988bf148dd38174a66cd2910"
      } ],
      "effectiveDateTime": "2022-01-20",
      "valueCodeableConcept": {
        "coding": [ {
          "extension": [ {
            "url": "http://hl7.org/fhir/StructureDefinition/ordinalValue",
            "valueDecimal": 7
          } ],
          "system": "http://snomed.info/sct",
          "version": "http://snomed.info/sct/900000000000207008/version/20250501",
          "code": "57403001"
        } ],
        "text": "7"
      },
      "method": {
        "coding": [ {
          "system": "http://snomed.info/sct",
          "version": "http://snomed.info/sct/900000000000207008/version/20250501",
          "code": "86273004",
          "display": "Biopsy (procedure)"
        } ]
      },
      "component": [ {
        "code": {
          "coding": [ {
            "system": "http://snomed.info/sct",
            "version": "http://snomed.info/sct/900000000000207008/version/20250501",
            "code": "384994009",
            "display": "Primary Gleason pattern"
          } ]
        },
        "valueInteger": 3
      }, {
        "code": {
          "coding": [ {
            "system": "http://snomed.info/sct",
            "version": "http://snomed.info/sct/900000000000207008/version/20250501",
            "code": "384995005",
            "display": "Secondary Gleason pattern"
          } ]
        },
        "valueInteger": 4
      } ]
    },
    "request": {
      "method": "PUT",
      "url": "Observation/313170f813148b19389bcc4133b10d2a7642c870555df35625dec1f8fce25f78"
    }
  }, {
    "fullUrl": "Observation/e058ce128aad62443a3b697b4ab50088b836ab2ee177fa3373c106280f1b5ec1",
    "resource": {
      "resourceType": "Observation",
      "id": "e058ce128aad62443a3b697b4ab50088b836ab2ee177fa3373c106280f1b5ec1",
      "meta": {
        "profile": [ "https://www.medizininformatik-initiative.de/fhir/ext/modul-onko/StructureDefinition/mii-pr-onko-allgemeiner-leistungszustand-ecog" ]
      },
      "identifier": [ {
        "system": "https://bzkf.github.io/obds-to-fhir/identifiers/allgemeiner-leistungszustand-ecog-id",
        "value": "ECOG-11_1_DI_1"
      } ],
      "status": "final",
      "code": {
        "coding": [ {
          "system": "http://snomed.info/sct",
          "version": "http://snomed.info/sct/900000000000207008/version/20250501",
          "code": "423740007",
          "display": "Eastern Cooperative Oncology Group performance status (observable entity)"
        } ]
      },
      "subject": {
        "reference": "Patient/b7590139fce130878d3cc126a6eb694647f845c7825798f5fa9d6f2c03e42bcb"
      },
      "focus": [ {
        "reference": "Condition/9500c9bdcd923c6cdbaf5045ddc3411d23197ab5988bf148dd38174a66cd2910"
      } ],
      "effectiveDateTime": "2021-07-08",
      "valueCodeableConcept": {
        "coding": [ {
          "system": "https://www.medizininformatik-initiative.de/fhir/ext/modul-onko/CodeSystem/mii-cs-onko-allgemeiner-leistungszustand-ecog",
          "code": "1",
          "display": "Einschränkung bei körperlicher Anstrengung, aber gehfähig; leichte körperliche Arbeit bzw. Arbeit im Sitzen (z. B. leichte Hausarbeit oder Büroarbeit) möglich (70 - 80 % nach Karnofsky)"
        } ]
      }
    },
    "request": {
      "method": "PUT",
      "url": "Observation/e058ce128aad62443a3b697b4ab50088b836ab2ee177fa3373c106280f1b5ec1"
    }
  }, {
    "fullUrl": "Observation/d6d7a93572564880cd18a64696d540672a68b39e90204addd1f1cf77d6ad2a23",
    "resource": {
      "resourceType": "Observation",
      "id": "d6d7a93572564880cd18a64696d540672a68b39e90204addd1f1cf77d6ad2a23",
      "identifier": [ {
        "system": "https://bzkf.github.io/obds-to-fhir/identifiers/gleason-score-observation-id",
        "value": "gleason-score-11_1_DI_1"
      } ],
      "status": "final",
      "code": {
        "coding": [ {
          "system": "http://snomed.info/sct",
          "version": "http://snomed.info/sct/900000000000207008/version/20250501",
          "code": "385377005",
          "display": "Gleason grade finding for prostatic cancer (finding)"
        } ]
      },
      "subject": {
        "reference": "Patient/b7590139fce130878d3cc126a6eb694647f845c7825798f5fa9d6f2c03e42bcb"
      },
      "focus": [ {
        "reference": "Condition/9500c9bdcd923c6cdbaf5045ddc3411d23197ab5988bf148dd38174a66cd2910"
      } ],
      "effectiveDateTime": "2021-07-08",
      "valueCodeableConcept": {
        "coding": [ {
          "extension": [ {
            "url": "http://hl7.org/fhir/StructureDefinition/ordinalValue",
            "valueDecimal": 7
          } ],
          "system": "http://snomed.info/sct",
          "version": "http://snomed.info/sct/900000000000207008/version/20250501",
          "code": "57403001"
        } ],
        "text": "7"
      },
      "method": {
        "coding": [ {
          "system": "http://snomed.info/sct",
          "version": "http://snomed.info/sct/900000000000207008/version/20250501",
          "code": "86273004",
          "display": "Biopsy (procedure)"
        } ]
      },
      "component": [ {
        "code": {
          "coding": [ {
            "system": "http://snomed.info/sct",
            "version": "http://snomed.info/sct/900000000000207008/version/20250501",
            "code": "384994009",
            "display": "Primary Gleason pattern"
          } ]
        },
        "valueInteger": 3
      }, {
        "code": {
          "coding": [ {
            "system": "http://snomed.info/sct",
            "version": "http://snomed.info/sct/900000000000207008/version/20250501",
            "code": "384995005",
            "display": "Secondary Gleason pattern"
          } ]
        },
        "valueInteger": 4
      } ]
    },
    "request": {
      "method": "PUT",
      "url": "Observation/d6d7a93572564880cd18a64696d540672a68b39e90204addd1f1cf77d6ad2a23"
    }
  }, {
    "fullUrl": "List/6384c15ef79a9610a5b9f6f4b53e68292d378e87cc0454c2b30d77809e5d9641",
    "resource": {
      "resourceType": "List",
      "id": "6384c15ef79a9610a5b9f6f4b53e68292d378e87cc0454c2b30d77809e5d9641",
      "meta": {
        "profile": [ "https://www.medizininformatik-initiative.de/fhir/ext/modul-onko/StructureDefinition/mii-pr-onko-liste-evidenz-erstdiagnose" ]
      },
      "identifier": [ {
        "system": "https://bzkf.github.io/obds-to-fhir/identifiers/erstdiagnose-evidenz-list-id",
        "value": "11-111"
      } ],
      "status": "current",
      "mode": "snapshot",
      "subject": {
        "reference": "Patient/b7590139fce130878d3cc126a6eb694647f845c7825798f5fa9d6f2c03e42bcb"
      },
      "entry": [ {
        "item": {
          "reference": "Observation/e058ce128aad62443a3b697b4ab50088b836ab2ee177fa3373c106280f1b5ec1"
        }
      }, {
        "item": {
          "reference": "Observation/d6d7a93572564880cd18a64696d540672a68b39e90204addd1f1cf77d6ad2a23"
        }
      } ]
    },
    "request": {
      "method": "PUT",
      "url": "List/6384c15ef79a9610a5b9f6f4b53e68292d378e87cc0454c2b30d77809e5d9641"
    }
  }, {
    "fullUrl": "Observation/5347c26c0cc167b6526753f3b3ae1c5ab7c4378461f6af6bc1f4d51c13ca2243",
    "resource": {
      "resourceType": "Observation",
      "id": "5347c26c0cc167b6526753f3b3ae1c5ab7c4378461f6af6bc1f4d51c13ca2243",
      "meta": {
        "profile": [ "https://www.medizininformatik-initiative.de/fhir/ext/modul-onko/StructureDefinition/mii-pr-onko-allgemeiner-leistungszustand-ecog" ]
      },
      "identifier": [ {
        "system": "https://bzkf.github.io/obds-to-fhir/identifiers/allgemeiner-leistungszustand-ecog-id",
        "value": "ECOG-11_2_DI-2"
      } ],
      "status": "final",
      "code": {
        "coding": [ {
          "system": "http://snomed.info/sct",
          "version": "http://snomed.info/sct/900000000000207008/version/20250501",
          "code": "423740007",
          "display": "Eastern Cooperative Oncology Group performance status (observable entity)"
        } ]
      },
      "subject": {
        "reference": "Patient/b7590139fce130878d3cc126a6eb694647f845c7825798f5fa9d6f2c03e42bcb"
      },
      "focus": [ {
        "reference": "Condition/25b51cb24c996e4f33e49aaeff58ecda1cf832ee83a01e90c6b795702a10dbac"
      } ],
      "effectiveDateTime": "2017-05-05",
      "valueCodeableConcept": {
        "coding": [ {
          "system": "https://www.medizininformatik-initiative.de/fhir/ext/modul-onko/CodeSystem/mii-cs-onko-allgemeiner-leistungszustand-ecog",
          "code": "0",
          "display": "Normale, uneingeschränkte Aktivität wie vor der Erkrankung (90 - 100 % nach Karnofsky)"
        } ]
      }
    },
    "request": {
      "method": "PUT",
      "url": "Observation/5347c26c0cc167b6526753f3b3ae1c5ab7c4378461f6af6bc1f4d51c13ca2243"
    }
  }, {
    "fullUrl": "Specimen/7014fc447b03edddbc257c5b944b73f047fccd12c57bb5993098c3809c291775",
    "resource": {
      "resourceType": "Specimen",
      "id": "7014fc447b03edddbc257c5b944b73f047fccd12c57bb5993098c3809c291775",
      "meta": {
        "profile": [ "https://www.medizininformatik-initiative.de/fhir/ext/modul-onko/StructureDefinition/mii-pr-onko-specimen" ]
      },
      "identifier": [ {
        "system": "https://bzkf.github.io/obds-to-fhir/identifiers/histologie-specimen-id",
        "value": "279"
      } ],
      "accessionIdentifier": {
        "value": "H1234/2015"
      },
      "subject": {
        "reference": "Patient/b7590139fce130878d3cc126a6eb694647f845c7825798f5fa9d6f2c03e42bcb"
      },
      "collection": {
        "collectedDateTime": "2017-05-05"
      }
    },
    "request": {
      "method": "PUT",
      "url": "Specimen/7014fc447b03edddbc257c5b944b73f047fccd12c57bb5993098c3809c291775"
    }
  }, {
    "fullUrl": "Observation/e59101cb6b87710419efc824e3ebf7a1aaad7709114581f942bbb723bc62d0a0",
    "resource": {
      "resourceType": "Observation",
      "id": "e59101cb6b87710419efc824e3ebf7a1aaad7709114581f942bbb723bc62d0a0",
      "meta": {
        "profile": [ "https://www.medizininformatik-initiative.de/fhir/ext/modul-onko/StructureDefinition/mii-pr-onko-grading" ]
      },
      "identifier": [ {
        "system": "https://bzkf.github.io/obds-to-fhir/identifiers/grading-observation-id",
        "value": "279-grading"
      } ],
      "status": "final",
      "category": [ {
        "coding": [ {
          "system": "http://terminology.hl7.org/CodeSystem/observation-category",
          "code": "laboratory"
        } ]
      } ],
      "code": {
        "coding": [ {
          "system": "http://loinc.org",
          "version": "2.80",
          "code": "33732-9",
          "display": "Histology grade [Identifier] in Cancer specimen"
        }, {
          "system": "http://snomed.info/sct",
          "version": "http://snomed.info/sct/900000000000207008/version/20250501",
          "code": "371469007",
          "display": "Histologic grade of neoplasm (observable entity)"
        } ]
      },
      "subject": {
        "reference": "Patient/b7590139fce130878d3cc126a6eb694647f845c7825798f5fa9d6f2c03e42bcb"
      },
      "focus": [ {
        "reference": "Condition/25b51cb24c996e4f33e49aaeff58ecda1cf832ee83a01e90c6b795702a10dbac"
      } ],
      "effectiveDateTime": "2017-05-05",
      "valueCodeableConcept": {
        "coding": [ {
          "system": "https://www.medizininformatik-initiative.de/fhir/ext/modul-onko/CodeSystem/mii-cs-onko-grading",
          "code": "T"
        } ]
      },
      "specimen": {
        "reference": "Specimen/7014fc447b03edddbc257c5b944b73f047fccd12c57bb5993098c3809c291775"
      }
    },
    "request": {
      "method": "PUT",
      "url": "Observation/e59101cb6b87710419efc824e3ebf7a1aaad7709114581f942bbb723bc62d0a0"
    }
  }, {
    "fullUrl": "Observation/8191c00addbf6b67701f9cf7ae5c4568795a7ed1cc0b685a6b68e49b661724ca",
    "resource": {
      "resourceType": "Observation",
      "id": "8191c00addbf6b67701f9cf7ae5c4568795a7ed1cc0b685a6b68e49b661724ca",
      "meta": {
        "profile": [ "https://www.medizininformatik-initiative.de/fhir/ext/modul-onko/StructureDefinition/mii-pr-onko-weitere-klassifikationen" ]
      },
      "identifier": [ {
        "system": "https://bzkf.github.io/obds-to-fhir/identifiers/weitere-klassifikation-observation-id",
        "value": "11_2_DI-2-Binet-2017-05-05"
      } ],
      "status": "final",
      "code": {
        "text": "Binet"
      },
      "subject": {
        "reference": "Patient/b7590139fce130878d3cc126a6eb694647f845c7825798f5fa9d6f2c03e42bcb"
      },
      "focus": [ {
        "reference": "Condition/25b51cb24c996e4f33e49aaeff58ecda1cf832ee83a01e90c6b795702a10dbac"
      } ],
      "effectiveDateTime": "2017-05-05",
      "valueCodeableConcept": {
        "coding": [ {
          "code": "A"
        } ]
      }
    },
    "request": {
      "method": "PUT",
      "url": "Observation/8191c00addbf6b67701f9cf7ae5c4568795a7ed1cc0b685a6b68e49b661724ca"
    }
  }, {
    "fullUrl": "List/68f894434b99e7de5b5769c52326baf79d0e07ab4ff8e7912e25a3689cffdb7d",
    "resource": {
      "resourceType": "List",
      "id": "68f894434b99e7de5b5769c52326baf79d0e07ab4ff8e7912e25a3689cffdb7d",
      "meta": {
        "profile": [ "https://www.medizininformatik-initiative.de/fhir/ext/modul-onko/StructureDefinition/mii-pr-onko-liste-evidenz-erstdiagnose" ]
      },
      "identifier": [ {
        "system": "https://bzkf.github.io/obds-to-fhir/identifiers/erstdiagnose-evidenz-list-id",
        "value": "11-112"
      } ],
      "status": "current",
      "mode": "snapshot",
      "subject": {
        "reference": "Patient/b7590139fce130878d3cc126a6eb694647f845c7825798f5fa9d6f2c03e42bcb"
      },
      "entry": [ {
        "item": {
          "reference": "Observation/5347c26c0cc167b6526753f3b3ae1c5ab7c4378461f6af6bc1f4d51c13ca2243"
        }
      }, {
        "item": {
          "reference": "Specimen/7014fc447b03edddbc257c5b944b73f047fccd12c57bb5993098c3809c291775"
        }
      }, {
        "item": {
          "reference": "Observation/e59101cb6b87710419efc824e3ebf7a1aaad7709114581f942bbb723bc62d0a0"
        }
      }, {
        "item": {
          "reference": "Observation/8191c00addbf6b67701f9cf7ae5c4568795a7ed1cc0b685a6b68e49b661724ca"
        }
      } ]
    },
    "request": {
      "method": "PUT",
      "url": "List/68f894434b99e7de5b5769c52326baf79d0e07ab4ff8e7912e25a3689cffdb7d"
    }
  } ]
}