{
  "resourceType": "Bundle",
  "id": "43d8d22e39e073fbb83f221071d60fe92e947d234ada77f7401d0eb4d230a849",
  "type": "transaction",
  "entry": [ {
    "fullUrl": "Patient/43d8d22e39e073fbb83f221071d60fe92e947d234ada77f7401d0eb4d230a849",
    "resource": {
      "resourceType": "Patient",
      "id": "43d8d22e39e073fbb83f221071d60fe92e947d234ada77f7401d0eb4d230a849",
      "meta": {
        "profile": [ "https://www.medizininformatik-initiative.de/fhir/core/modul-person/StructureDefinition/PatientPseudonymisiert" ]
      },
      "identifier": [ {
        "type": {
          "coding": [ {
            "system": "http://terminology.hl7.org/CodeSystem/v2-0203",
            "code": "MR",
            "display": "Medical record number"
          }, {
            "system": "http://terminology.hl7.org/CodeSystem/v3-ObservationValue",
            "code": "PSEUDED",
            "display": "pseudonymized"
          } ]
        },
        "system": "https://bzkf.github.io/obds-to-fhir/identifiers/patient-id",
        "value": "19"
      } ],
      "gender": "female",
      "birthDate": "1950-05-01",
      "address": [ {
        "type": "both",
        "postalCode": "12345",
        "country": "DE"
      } ]
    },
    "request": {
      "method": "PUT",
      "url": "Patient/43d8d22e39e073fbb83f221071d60fe92e947d234ada77f7401d0eb4d230a849"
    }
  }, {
    "fullUrl": "Condition/2b8efc01441d384050dfa3aeaf09e5387eb44563ce35e2e27b40d5d1740d7abf",
    "resource": {
      "resourceType": "Condition",
      "id": "2b8efc01441d384050dfa3aeaf09e5387eb44563ce35e2e27b40d5d1740d7abf",
      "meta": {
        "profile": [ "https://www.medizininformatik-initiative.de/fhir/ext/modul-onko/StructureDefinition/mii-pr-onko-diagnose-primaertumor" ]
      },
      "extension": [ {
        "url": "https://www.medizininformatik-initiative.de/fhir/ext/modul-onko/StructureDefinition/mii-ex-onko-histology-morphology-behavior-icdo3",
        "valueCodeableConcept": {
          "coding": [ {
            "system": "http://terminology.hl7.org/CodeSystem/icd-o-3",
            "version": "33",
            "code": "8077/2"
          } ],
          "text": "Zervikale intraepitheliale Neoplasie Grad 3"
        }
      }, {
        "url": "http://hl7.org/fhir/StructureDefinition/condition-assertedDate",
        "valueDateTime": "2022-10-02"
      } ],
      "identifier": [ {
        "system": "https://bzkf.github.io/obds-to-fhir/identifiers/primaerdiagnose-id",
        "value": "19-195"
      } ],
      "verificationStatus": {
        "coding": [ {
          "system": "http://terminology.hl7.org/CodeSystem/condition-ver-status",
          "code": "confirmed"
        }, {
          "system": "https://www.medizininformatik-initiative.de/fhir/ext/modul-onko/CodeSystem/mii-cs-onko-primaertumor-diagnosesicherung",
          "code": "5"
        } ]
      },
      "code": {
        "coding": [ {
          "system": "http://fhir.de/CodeSystem/bfarm/icd-10-gm",
          "version": "2022",
          "code": "D06.9"
        } ]
      },
      "bodySite": [ {
        "coding": [ {
          "system": "http://terminology.hl7.org/CodeSystem/icd-o-3",
          "version": "33",
          "code": "C53.9"
        } ],
        "text": "Cervix uteri"
      }, {
        "coding": [ {
          "system": "https://www.medizininformatik-initiative.de/fhir/ext/modul-onko/CodeSystem/mii-cs-onko-seitenlokalisation",
          "code": "T"
        }, {
          "system": "http://snomed.info/sct",
          "version": "http://snomed.info/sct/900000000000207008/version/20250501",
          "code": "385432009",
          "display": "Not applicable (qualifier value)"
        } ]
      } ],
      "subject": {
        "reference": "Patient/43d8d22e39e073fbb83f221071d60fe92e947d234ada77f7401d0eb4d230a849"
      },
      "recordedDate": "2024-04-22",
      "evidence": [ {
        "detail": [ {
          "reference": "List/d1c7f88bae7347ce3687489f726bb619b240436ae19c7c5189a8d57de8b4c5c8"
        } ]
      } ]
    },
    "request": {
      "method": "PUT",
      "url": "Condition/2b8efc01441d384050dfa3aeaf09e5387eb44563ce35e2e27b40d5d1740d7abf"
    }
  }, {
    "fullUrl": "Procedure/e05a1e24b4ff9a0191bf1ec8ac695cfb0aa7b3556765aa36b9f58d3275704541",
    "resource": {
      "resourceType": "Procedure",
      "id": "e05a1e24b4ff9a0191bf1ec8ac695cfb0aa7b3556765aa36b9f58d3275704541",
      "meta": {
        "profile": [ "https://www.medizininformatik-initiative.de/fhir/ext/modul-onko/StructureDefinition/mii-pr-onko-operation" ]
      },
      "extension": [ {
        "url": "https://www.medizininformatik-initiative.de/fhir/ext/modul-onko/StructureDefinition/mii-ex-onko-operation-intention",
        "valueCodeableConcept": {
          "coding": [ {
            "system": "https://www.medizininformatik-initiative.de/fhir/ext/modul-onko/CodeSystem/mii-cs-onko-intention",
            "code": "K"
          } ]
        }
      } ],
      "identifier": [ {
        "system": "https://bzkf.github.io/obds-to-fhir/identifiers/operation-procedure-id",
        "value": "295-671.01"
      } ],
      "status": "completed",
      "category": {
        "coding": [ {
          "system": "http://snomed.info/sct",
          "version": "http://snomed.info/sct/900000000000207008/version/20250501",
          "code": "387713003",
          "display": "Surgical procedure"
        } ]
      },
      "code": {
        "coding": [ {
          "system": "http://fhir.de/CodeSystem/bfarm/ops",
          "version": "2022",
          "code": "5-671.01"
        } ]
      },
      "subject": {
        "reference": "Patient/43d8d22e39e073fbb83f221071d60fe92e947d234ada77f7401d0eb4d230a849"
      },
      "performedDateTime": "2022-10-16",
      "reasonReference": [ {
        "reference": "Condition/2b8efc01441d384050dfa3aeaf09e5387eb44563ce35e2e27b40d5d1740d7abf"
      } ],
      "outcome": {
        "coding": [ {
          "system": "https://www.medizininformatik-initiative.de/fhir/ext/modul-onko/CodeSystem/mii-cs-onko-residualstatus",
          "code": "R0"
        } ]
      }
    },
    "request": {
      "method": "PUT",
      "url": "Procedure/e05a1e24b4ff9a0191bf1ec8ac695cfb0aa7b3556765aa36b9f58d3275704541"
    }
  }, {
    "fullUrl": "Observation/4039fb1c7eb636f48eb37893b683752a6f41e7e05dffc8b12bb3fe8a336d5008",
    "resource": {
      "resourceType": "Observation",
      "id": "4039fb1c7eb636f48eb37893b683752a6f41e7e05dffc8b12bb3fe8a336d5008",
      "identifier": [ {
        "system": "https://bzkf.github.io/obds-to-fhir/identifiers/residualstatus-observation-id",
        "value": "29"
      } ],
      "status": "final",
      "code": {
        "coding": [ {
          "system": "http://loinc.org",
          "version": "2.80",
          "code": "84892-9",
          "display": "Residual tumor classification [Type] in Cancer specimen"
        } ]
      },
      "subject": {
        "reference": "Patient/43d8d22e39e073fbb83f221071d60fe92e947d234ada77f7401d0eb4d230a849"
      },
      "focus": [ {
        "reference": "Condition/2b8efc01441d384050dfa3aeaf09e5387eb44563ce35e2e27b40d5d1740d7abf"
      } ],
      "effectiveDateTime": "2022-10-16",
      "valueCodeableConcept": {
        "coding": [ {
          "system": "https://www.medizininformatik-initiative.de/fhir/ext/modul-onko/CodeSystem/mii-cs-onko-residualstatus",
          "code": "R0"
        } ]
      }
    },
    "request": {
      "method": "PUT",
      "url": "Observation/4039fb1c7eb636f48eb37893b683752a6f41e7e05dffc8b12bb3fe8a336d5008"
    }
  }, {
    "fullUrl": "Specimen/39e80b46672060468b9f2ad9dcf91c0438a1211a87cbafcdb664ac536183a277",
    "resource": {
      "resourceType": "Specimen",
      "id": "39e80b46672060468b9f2ad9dcf91c0438a1211a87cbafcdb664ac536183a277",
      "meta": {
        "profile": [ "https://www.medizininformatik-initiative.de/fhir/ext/modul-onko/StructureDefinition/mii-pr-onko-specimen" ]
      },
      "identifier": [ {
        "system": "https://bzkf.github.io/obds-to-fhir/identifiers/specimen-id",
        "value": "54"
      } ],
      "accessionIdentifier": {
        "value": "X/98765/2"
      },
      "subject": {
        "reference": "Patient/43d8d22e39e073fbb83f221071d60fe92e947d234ada77f7401d0eb4d230a849"
      },
      "collection": {
        "collectedDateTime": "2022-10-16"
      }
    },
    "request": {
      "method": "PUT",
      "url": "Specimen/39e80b46672060468b9f2ad9dcf91c0438a1211a87cbafcdb664ac536183a277"
    }
  }, {
    "fullUrl": "Observation/5acb936889811e9dfdd58e8890670d739bee329c50bc03c08e40df2761fe0820",
    "resource": {
      "resourceType": "Observation",
      "id": "5acb936889811e9dfdd58e8890670d739bee329c50bc03c08e40df2761fe0820",
      "meta": {
        "profile": [ "https://www.medizininformatik-initiative.de/fhir/ext/modul-onko/StructureDefinition/mii-pr-onko-histologie-icdo3" ]
      },
      "identifier": [ {
        "system": "https://bzkf.github.io/obds-to-fhir/identifiers/observation-histologie-id",
        "value": "54-ICDO3-8077/2"
      } ],
      "status": "final",
      "code": {
        "coding": [ {
          "system": "http://loinc.org",
          "version": "2.80",
          "code": "59847-4",
          "display": "Histology and Behavior ICD-O-3 Cancer"
        } ]
      },
      "subject": {
        "reference": "Patient/43d8d22e39e073fbb83f221071d60fe92e947d234ada77f7401d0eb4d230a849"
      },
      "focus": [ {
        "reference": "Condition/2b8efc01441d384050dfa3aeaf09e5387eb44563ce35e2e27b40d5d1740d7abf"
      } ],
      "effectiveDateTime": "2022-10-16",
      "valueCodeableConcept": {
        "coding": [ {
          "system": "http://terminology.hl7.org/CodeSystem/icd-o-3",
          "version": "33",
          "code": "8077/2"
        } ],
        "text": "Zervikale intraepitheliale Neoplasie Grad 3"
      },
      "specimen": {
        "reference": "Specimen/39e80b46672060468b9f2ad9dcf91c0438a1211a87cbafcdb664ac536183a277"
      }
    },
    "request": {
      "method": "PUT",
      "url": "Observation/5acb936889811e9dfdd58e8890670d739bee329c50bc03c08e40df2761fe0820"
    }
  }, {
    "fullUrl": "Observation/0c3247797f283c23fed499dffafc570fbdb6787d732ce735fc6aeb18ed8ab3b8",
    "resource": {
      "resourceType": "Observation",
      "id": "0c3247797f283c23fed499dffafc570fbdb6787d732ce735fc6aeb18ed8ab3b8",
      "meta": {
        "profile": [ "https://www.medizininformatik-initiative.de/fhir/ext/modul-onko/StructureDefinition/mii-pr-onko-grading" ]
      },
      "identifier": [ {
        "system": "https://bzkf.github.io/obds-to-fhir/identifiers/grading-observation-id",
        "value": "54-grading"
      } ],
      "status": "final",
      "category": [ {
        "coding": [ {
          "system": "http://terminology.hl7.org/CodeSystem/observation-category",
          "code": "laboratory"
        } ]
      } ],
      "code": {
        "coding": [ {
          "system": "http://loinc.org",
          "version": "2.80",
          "code": "33732-9",
          "display": "Histology grade [Identifier] in Cancer specimen"
        }, {
          "system": "http://snomed.info/sct",
          "version": "http://snomed.info/sct/900000000000207008/version/20250501",
          "code": "371469007",
          "display": "Histologic grade of neoplasm (observable entity)"
        } ]
      },
      "subject": {
        "reference": "Patient/43d8d22e39e073fbb83f221071d60fe92e947d234ada77f7401d0eb4d230a849"
      },
      "focus": [ {
        "reference": "Condition/2b8efc01441d384050dfa3aeaf09e5387eb44563ce35e2e27b40d5d1740d7abf"
      } ],
      "effectiveDateTime": "2022-10-16",
      "valueCodeableConcept": {
        "coding": [ {
          "system": "https://www.medizininformatik-initiative.de/fhir/ext/modul-onko/CodeSystem/mii-cs-onko-grading",
          "code": "3"
        } ]
      },
      "specimen": {
        "reference": "Specimen/39e80b46672060468b9f2ad9dcf91c0438a1211a87cbafcdb664ac536183a277"
      }
    },
    "request": {
      "method": "PUT",
      "url": "Observation/0c3247797f283c23fed499dffafc570fbdb6787d732ce735fc6aeb18ed8ab3b8"
    }
  }, {
    "fullUrl": "Observation/356510b4071f5865a21c999d0febeb5d4b331ccf2c7b102b43865187a4a1be35",
    "resource": {
      "resourceType": "Observation",
      "id": "356510b4071f5865a21c999d0febeb5d4b331ccf2c7b102b43865187a4a1be35",
      "meta": {
        "profile": [ "https://www.medizininformatik-initiative.de/fhir/ext/modul-onko/StructureDefinition/mii-pr-onko-tnm-t-kategorie" ]
      },
      "identifier": [ {
        "system": "https://bzkf.github.io/obds-to-fhir/identifiers/tnm-t-kategorie-observation-id",
        "value": "49_T"
      } ],
      "status": "final",
      "code": {
        "extension": [ {
          "url": "https://www.medizininformatik-initiative.de/fhir/ext/modul-onko/StructureDefinition/mii-ex-onko-tnm-cp-praefix",
          "valueCodeableConcept": {
            "coding": [ {
              "system": "https://www.uicc.org/resources/tnm",
              "code": "p"
            } ]
          }
        } ],
        "coding": [ {
          "system": "http://snomed.info/sct",
          "version": "http://snomed.info/sct/900000000000207008/version/20250501",
          "code": "384625004",
          "display": "pT category (observable entity)"
        } ]
      },
      "subject": {
        "reference": "Patient/43d8d22e39e073fbb83f221071d60fe92e947d234ada77f7401d0eb4d230a849"
      },
      "focus": [ {
        "reference": "Condition/2b8efc01441d384050dfa3aeaf09e5387eb44563ce35e2e27b40d5d1740d7abf"
      } ],
      "effectiveDateTime": "2022-10-16",
      "valueCodeableConcept": {
        "coding": [ {
          "system": "https://www.uicc.org/resources/tnm",
          "code": "Tis"
        } ]
      },
      "method": {
        "coding": [ {
          "system": "https://www.medizininformatik-initiative.de/fhir/ext/modul-onko/CodeSystem/mii-cs-onko-tnm-version",
          "code": "8"
        } ]
      }
    },
    "request": {
      "method": "PUT",
      "url": "Observation/356510b4071f5865a21c999d0febeb5d4b331ccf2c7b102b43865187a4a1be35"
    }
  }, {
    "fullUrl": "Observation/c77f4341767d48873aad119527c2496cfe5ce208358282670d688347aaa8edc7",
    "resource": {
      "resourceType": "Observation",
      "id": "c77f4341767d48873aad119527c2496cfe5ce208358282670d688347aaa8edc7",
      "meta": {
        "profile": [ "https://www.medizininformatik-initiative.de/fhir/ext/modul-onko/StructureDefinition/mii-pr-onko-tnm-klassifikation" ]
      },
      "identifier": [ {
        "system": "https://bzkf.github.io/obds-to-fhir/identifiers/tnm-grouping-observation-id",
        "value": "49"
      } ],
      "status": "final",
      "code": {
        "coding": [ {
          "system": "http://snomed.info/sct",
          "version": "http://snomed.info/sct/900000000000207008/version/20250501",
          "code": "399390009",
          "display": "TNM stage grouping"
        } ]
      },
      "subject": {
        "reference": "Patient/43d8d22e39e073fbb83f221071d60fe92e947d234ada77f7401d0eb4d230a849"
      },
      "focus": [ {
        "reference": "Condition/2b8efc01441d384050dfa3aeaf09e5387eb44563ce35e2e27b40d5d1740d7abf"
      } ],
      "effectiveDateTime": "2022-10-16",
      "valueCodeableConcept": {
        "coding": [ {
          "system": "https://www.uicc.org/resources/tnm",
          "code": "0",
          "display": "Stadium 0"
        } ]
      },
      "method": {
        "coding": [ {
          "system": "https://www.medizininformatik-initiative.de/fhir/ext/modul-onko/CodeSystem/mii-cs-onko-tnm-version",
          "code": "8"
        } ]
      },
      "hasMember": [ {
        "reference": "Observation/356510b4071f5865a21c999d0febeb5d4b331ccf2c7b102b43865187a4a1be35"
      } ]
    },
    "request": {
      "method": "PUT",
      "url": "Observation/c77f4341767d48873aad119527c2496cfe5ce208358282670d688347aaa8edc7"
    }
  }, {
    "fullUrl": "Observation/ee9229bfb55adfac28d31404e6774949fe5f9e3e9f3a3a7c6c0e987a1e192d62",
    "resource": {
      "resourceType": "Observation",
      "id": "ee9229bfb55adfac28d31404e6774949fe5f9e3e9f3a3a7c6c0e987a1e192d62",
      "meta": {
        "profile": [ "https://www.medizininformatik-initiative.de/fhir/ext/modul-onko/StructureDefinition/mii-pr-onko-allgemeiner-leistungszustand-ecog" ]
      },
      "identifier": [ {
        "system": "https://bzkf.github.io/obds-to-fhir/identifiers/allgemeiner-leistungszustand-ecog-id",
        "value": "ECOG-10_5_DI_1"
      } ],
      "status": "final",
      "code": {
        "coding": [ {
          "system": "http://snomed.info/sct",
          "version": "http://snomed.info/sct/900000000000207008/version/20250501",
          "code": "423740007",
          "display": "Eastern Cooperative Oncology Group performance status (observable entity)"
        } ]
      },
      "subject": {
        "reference": "Patient/43d8d22e39e073fbb83f221071d60fe92e947d234ada77f7401d0eb4d230a849"
      },
      "focus": [ {
        "reference": "Condition/2b8efc01441d384050dfa3aeaf09e5387eb44563ce35e2e27b40d5d1740d7abf"
      } ],
      "effectiveDateTime": "2022-10-02",
      "valueCodeableConcept": {
        "coding": [ {
          "system": "https://www.medizininformatik-initiative.de/fhir/ext/modul-onko/CodeSystem/mii-cs-onko-allgemeiner-leistungszustand-ecog",
          "code": "0",
          "display": "Normale, uneingeschränkte Aktivität wie vor der Erkrankung (90 - 100 % nach Karnofsky)"
        } ]
      }
    },
    "request": {
      "method": "PUT",
      "url": "Observation/ee9229bfb55adfac28d31404e6774949fe5f9e3e9f3a3a7c6c0e987a1e192d62"
    }
  }, {
    "fullUrl": "Specimen/ce77359a50c9005ab6053fa70782271998c8310b83965837f65b5b0a5cece9bc",
    "resource": {
      "resourceType": "Specimen",
      "id": "ce77359a50c9005ab6053fa70782271998c8310b83965837f65b5b0a5cece9bc",
      "meta": {
        "profile": [ "https://www.medizininformatik-initiative.de/fhir/ext/modul-onko/StructureDefinition/mii-pr-onko-specimen" ]
      },
      "identifier": [ {
        "system": "https://bzkf.github.io/obds-to-fhir/identifiers/specimen-id",
        "value": "53"
      } ],
      "accessionIdentifier": {
        "value": "X/98765/1"
      },
      "subject": {
        "reference": "Patient/43d8d22e39e073fbb83f221071d60fe92e947d234ada77f7401d0eb4d230a849"
      },
      "collection": {
        "collectedDateTime": "2022-10-03"
      }
    },
    "request": {
      "method": "PUT",
      "url": "Specimen/ce77359a50c9005ab6053fa70782271998c8310b83965837f65b5b0a5cece9bc"
    }
  }, {
    "fullUrl": "Observation/e635685c1dd8eccfb98195fbf658b3880e72664d04be47cedf02aa55d311a7d2",
    "resource": {
      "resourceType": "Observation",
      "id": "e635685c1dd8eccfb98195fbf658b3880e72664d04be47cedf02aa55d311a7d2",
      "meta": {
        "profile": [ "https://www.medizininformatik-initiative.de/fhir/ext/modul-onko/StructureDefinition/mii-pr-onko-grading" ]
      },
      "identifier": [ {
        "system": "https://bzkf.github.io/obds-to-fhir/identifiers/grading-observation-id",
        "value": "53-grading"
      } ],
      "status": "final",
      "category": [ {
        "coding": [ {
          "system": "http://terminology.hl7.org/CodeSystem/observation-category",
          "code": "laboratory"
        } ]
      } ],
      "code": {
        "coding": [ {
          "system": "http://loinc.org",
          "version": "2.80",
          "code": "33732-9",
          "display": "Histology grade [Identifier] in Cancer specimen"
        }, {
          "system": "http://snomed.info/sct",
          "version": "http://snomed.info/sct/900000000000207008/version/20250501",
          "code": "371469007",
          "display": "Histologic grade of neoplasm (observable entity)"
        } ]
      },
      "subject": {
        "reference": "Patient/43d8d22e39e073fbb83f221071d60fe92e947d234ada77f7401d0eb4d230a849"
      },
      "focus": [ {
        "reference": "Condition/2b8efc01441d384050dfa3aeaf09e5387eb44563ce35e2e27b40d5d1740d7abf"
      } ],
      "effectiveDateTime": "2022-10-03",
      "valueCodeableConcept": {
        "coding": [ {
          "system": "https://www.medizininformatik-initiative.de/fhir/ext/modul-onko/CodeSystem/mii-cs-onko-grading",
          "code": "3"
        } ]
      },
      "specimen": {
        "reference": "Specimen/ce77359a50c9005ab6053fa70782271998c8310b83965837f65b5b0a5cece9bc"
      }
    },
    "request": {
      "method": "PUT",
      "url": "Observation/e635685c1dd8eccfb98195fbf658b3880e72664d04be47cedf02aa55d311a7d2"
    }
  }, {
    "fullUrl": "Observation/f188bf42ff1a143c3cf83257db96c935df093c6de96f214d7ce30c74e4ac2912",
    "resource": {
      "resourceType": "Observation",
      "id": "f188bf42ff1a143c3cf83257db96c935df093c6de96f214d7ce30c74e4ac2912",
      "meta": {
        "profile": [ "https://www.medizininformatik-initiative.de/fhir/ext/modul-onko/StructureDefinition/mii-pr-onko-studienteilnahme" ]
      },
      "identifier": [ {
        "system": "https://bzkf.github.io/obds-to-fhir/identifiers/studienteilnahme-id",
        "value": "10_5_DI_1_Studienteilnahme"
      } ],
      "status": "final",
      "code": {
        "coding": [ {
          "system": "http://snomed.info/sct",
          "version": "http://snomed.info/sct/900000000000207008/version/20250501",
          "code": "709491003",
          "display": "Enrollment in clinical trial (procedure)"
        } ]
      },
      "subject": {
        "reference": "Patient/43d8d22e39e073fbb83f221071d60fe92e947d234ada77f7401d0eb4d230a849"
      },
      "focus": [ {
        "reference": "Condition/2b8efc01441d384050dfa3aeaf09e5387eb44563ce35e2e27b40d5d1740d7abf"
      } ],
      "valueCodeableConcept": {
        "coding": [ {
          "system": "https://www.medizininformatik-initiative.de/fhir/ext/modul-onko/CodeSystem/mii-cs-onko-studienteilnahme",
          "code": "N"
        } ]
      }
    },
    "request": {
      "method": "PUT",
      "url": "Observation/f188bf42ff1a143c3cf83257db96c935df093c6de96f214d7ce30c74e4ac2912"
    }
  }, {
    "fullUrl": "Observation/87814af6d4c91da92f8b10a9a52f8124d4fdff4a609a1c7f7ad0cf82f60ad25c",
    "resource": {
      "resourceType": "Observation",
      "id": "87814af6d4c91da92f8b10a9a52f8124d4fdff4a609a1c7f7ad0cf82f60ad25c",
      "meta": {
        "profile": [ "https://www.medizininformatik-initiative.de/fhir/ext/modul-onko/StructureDefinition/mii-pr-onko-tnm-t-kategorie" ]
      },
      "identifier": [ {
        "system": "https://bzkf.github.io/obds-to-fhir/identifiers/tnm-t-kategorie-observation-id",
        "value": "47-c_T"
      } ],
      "status": "final",
      "code": {
        "extension": [ {
          "url": "https://www.medizininformatik-initiative.de/fhir/ext/modul-onko/StructureDefinition/mii-ex-onko-tnm-cp-praefix",
          "valueCodeableConcept": {
            "coding": [ {
              "system": "https://www.uicc.org/resources/tnm",
              "code": "c"
            } ]
          }
        } ],
        "coding": [ {
          "system": "http://snomed.info/sct",
          "version": "http://snomed.info/sct/900000000000207008/version/20250501",
          "code": "399504009",
          "display": "cT category (observable entity)"
        } ]
      },
      "subject": {
        "reference": "Patient/43d8d22e39e073fbb83f221071d60fe92e947d234ada77f7401d0eb4d230a849"
      },
      "focus": [ {
        "reference": "Condition/2b8efc01441d384050dfa3aeaf09e5387eb44563ce35e2e27b40d5d1740d7abf"
      } ],
      "effectiveDateTime": "2022-10-02",
      "valueCodeableConcept": {
        "coding": [ {
          "system": "https://www.uicc.org/resources/tnm",
          "code": "Tis"
        } ]
      },
      "method": {
        "coding": [ {
          "system": "https://www.medizininformatik-initiative.de/fhir/ext/modul-onko/CodeSystem/mii-cs-onko-tnm-version",
          "code": "8"
        } ]
      }
    },
    "request": {
      "method": "PUT",
      "url": "Observation/87814af6d4c91da92f8b10a9a52f8124d4fdff4a609a1c7f7ad0cf82f60ad25c"
    }
  }, {
    "fullUrl": "Observation/5f118ba33bdf2d33140ed017ddd1c545bdd7b8cb0139401b65906d1a33935f96",
    "resource": {
      "resourceType": "Observation",
      "id": "5f118ba33bdf2d33140ed017ddd1c545bdd7b8cb0139401b65906d1a33935f96",
      "meta": {
        "profile": [ "https://www.medizininformatik-initiative.de/fhir/ext/modul-onko/StructureDefinition/mii-pr-onko-tnm-n-kategorie" ]
      },
      "identifier": [ {
        "system": "https://bzkf.github.io/obds-to-fhir/identifiers/tnm-n-kategorie-observation-id",
        "value": "47-c_N"
      } ],
      "status": "final",
      "code": {
        "extension": [ {
          "url": "https://www.medizininformatik-initiative.de/fhir/ext/modul-onko/StructureDefinition/mii-ex-onko-tnm-cp-praefix",
          "valueCodeableConcept": {
            "coding": [ {
              "system": "https://www.uicc.org/resources/tnm",
              "code": "c"
            } ]
          }
        } ],
        "coding": [ {
          "system": "http://snomed.info/sct",
          "version": "http://snomed.info/sct/900000000000207008/version/20250501",
          "code": "399534004",
          "display": "cN category (observable entity)"
        } ]
      },
      "subject": {
        "reference": "Patient/43d8d22e39e073fbb83f221071d60fe92e947d234ada77f7401d0eb4d230a849"
      },
      "focus": [ {
        "reference": "Condition/2b8efc01441d384050dfa3aeaf09e5387eb44563ce35e2e27b40d5d1740d7abf"
      } ],
      "effectiveDateTime": "2022-10-02",
      "valueCodeableConcept": {
        "coding": [ {
          "system": "https://www.uicc.org/resources/tnm",
          "code": "N0"
        } ]
      },
      "method": {
        "coding": [ {
          "system": "https://www.medizininformatik-initiative.de/fhir/ext/modul-onko/CodeSystem/mii-cs-onko-tnm-version",
          "code": "8"
        } ]
      }
    },
    "request": {
      "method": "PUT",
      "url": "Observation/5f118ba33bdf2d33140ed017ddd1c545bdd7b8cb0139401b65906d1a33935f96"
    }
  }, {
    "fullUrl": "Observation/e8d028a08aba37756f47128b2e141c960b1e06fa9460f750efe045cdb97d275f",
    "resource": {
      "resourceType": "Observation",
      "id": "e8d028a08aba37756f47128b2e141c960b1e06fa9460f750efe045cdb97d275f",
      "meta": {
        "profile": [ "https://www.medizininformatik-initiative.de/fhir/ext/modul-onko/StructureDefinition/mii-pr-onko-tnm-m-kategorie" ]
      },
      "identifier": [ {
        "system": "https://bzkf.github.io/obds-to-fhir/identifiers/tnm-m-kategorie-observation-id",
        "value": "47-c_M"
      } ],
      "status": "final",
      "code": {
        "extension": [ {
          "url": "https://www.medizininformatik-initiative.de/fhir/ext/modul-onko/StructureDefinition/mii-ex-onko-tnm-cp-praefix",
          "valueCodeableConcept": {
            "coding": [ {
              "system": "https://www.uicc.org/resources/tnm",
              "code": "c"
            } ]
          }
        } ],
        "coding": [ {
          "system": "http://snomed.info/sct",
          "version": "http://snomed.info/sct/900000000000207008/version/20250501",
          "code": "399387003",
          "display": "cM category (observable entity)"
        } ]
      },
      "subject": {
        "reference": "Patient/43d8d22e39e073fbb83f221071d60fe92e947d234ada77f7401d0eb4d230a849"
      },
      "focus": [ {
        "reference": "Condition/2b8efc01441d384050dfa3aeaf09e5387eb44563ce35e2e27b40d5d1740d7abf"
      } ],
      "effectiveDateTime": "2022-10-02",
      "valueCodeableConcept": {
        "coding": [ {
          "system": "https://www.uicc.org/resources/tnm",
          "code": "M0"
        } ]
      },
      "method": {
        "coding": [ {
          "system": "https://www.medizininformatik-initiative.de/fhir/ext/modul-onko/CodeSystem/mii-cs-onko-tnm-version",
          "code": "8"
        } ]
      }
    },
    "request": {
      "method": "PUT",
      "url": "Observation/e8d028a08aba37756f47128b2e141c960b1e06fa9460f750efe045cdb97d275f"
    }
  }, {
    "fullUrl": "Observation/c38c194d0b638d00470c51d26348360a7e42d6b35dc0523fad7f378f92a9639a",
    "resource": {
      "resourceType": "Observation",
      "id": "c38c194d0b638d00470c51d26348360a7e42d6b35dc0523fad7f378f92a9639a",
      "meta": {
        "profile": [ "https://www.medizininformatik-initiative.de/fhir/ext/modul-onko/StructureDefinition/mii-pr-onko-tnm-klassifikation" ]
      },
      "identifier": [ {
        "system": "https://bzkf.github.io/obds-to-fhir/identifiers/tnm-grouping-observation-id",
        "value": "47-c"
      } ],
      "status": "final",
      "code": {
        "coding": [ {
          "system": "http://snomed.info/sct",
          "version": "http://snomed.info/sct/900000000000207008/version/20250501",
          "code": "399537006",
          "display": "Clinical TNM stage grouping"
        } ]
      },
      "subject": {
        "reference": "Patient/43d8d22e39e073fbb83f221071d60fe92e947d234ada77f7401d0eb4d230a849"
      },
      "focus": [ {
        "reference": "Condition/2b8efc01441d384050dfa3aeaf09e5387eb44563ce35e2e27b40d5d1740d7abf"
      } ],
      "effectiveDateTime": "2022-10-02",
      "valueCodeableConcept": {
        "coding": [ {
          "system": "https://www.uicc.org/resources/tnm",
          "code": "0",
          "display": "Stadium 0"
        } ]
      },
      "method": {
        "coding": [ {
          "system": "https://www.medizininformatik-initiative.de/fhir/ext/modul-onko/CodeSystem/mii-cs-onko-tnm-version",
          "code": "8"
        } ]
      },
      "hasMember": [ {
        "reference": "Observation/87814af6d4c91da92f8b10a9a52f8124d4fdff4a609a1c7f7ad0cf82f60ad25c"
      }, {
        "reference": "Observation/5f118ba33bdf2d33140ed017ddd1c545bdd7b8cb0139401b65906d1a33935f96"
      }, {
        "reference": "Observation/e8d028a08aba37756f47128b2e141c960b1e06fa9460f750efe045cdb97d275f"
      } ]
    },
    "request": {
      "method": "PUT",
      "url": "Observation/c38c194d0b638d00470c51d26348360a7e42d6b35dc0523fad7f378f92a9639a"
    }
  }, {
    "fullUrl": "Observation/4277e93a0ca725aa2b16ce1cfcca5b5f9f18ab1ae9ffed4ec41b483be09fd9c8",
    "resource": {
      "resourceType": "Observation",
      "id": "4277e93a0ca725aa2b16ce1cfcca5b5f9f18ab1ae9ffed4ec41b483be09fd9c8",
      "meta": {
        "profile": [ "https://www.medizininformatik-initiative.de/fhir/ext/modul-onko/StructureDefinition/mii-pr-onko-tnm-t-kategorie" ]
      },
      "identifier": [ {
        "system": "https://bzkf.github.io/obds-to-fhir/identifiers/tnm-t-kategorie-observation-id",
        "value": "48-p_T"
      } ],
      "status": "final",
      "code": {
        "extension": [ {
          "url": "https://www.medizininformatik-initiative.de/fhir/ext/modul-onko/StructureDefinition/mii-ex-onko-tnm-cp-praefix",
          "valueCodeableConcept": {
            "coding": [ {
              "system": "https://www.uicc.org/resources/tnm",
              "code": "p"
            } ]
          }
        } ],
        "coding": [ {
          "system": "http://snomed.info/sct",
          "version": "http://snomed.info/sct/900000000000207008/version/20250501",
          "code": "384625004",
          "display": "pT category (observable entity)"
        } ]
      },
      "subject": {
        "reference": "Patient/43d8d22e39e073fbb83f221071d60fe92e947d234ada77f7401d0eb4d230a849"
      },
      "focus": [ {
        "reference": "Condition/2b8efc01441d384050dfa3aeaf09e5387eb44563ce35e2e27b40d5d1740d7abf"
      } ],
      "effectiveDateTime": "2022-10-03",
      "valueCodeableConcept": {
        "coding": [ {
          "system": "https://www.uicc.org/resources/tnm",
          "code": "Tis"
        } ]
      },
      "method": {
        "coding": [ {
          "system": "https://www.medizininformatik-initiative.de/fhir/ext/modul-onko/CodeSystem/mii-cs-onko-tnm-version",
          "code": "8"
        } ]
      }
    },
    "request": {
      "method": "PUT",
      "url": "Observation/4277e93a0ca725aa2b16ce1cfcca5b5f9f18ab1ae9ffed4ec41b483be09fd9c8"
    }
  }, {
    "fullUrl": "Observation/ccb1d8a000558afcd46dfd1170ae46c3d254c891833e97099147fc72414a9368",
    "resource": {
      "resourceType": "Observation",
      "id": "ccb1d8a000558afcd46dfd1170ae46c3d254c891833e97099147fc72414a9368",
      "meta": {
        "profile": [ "https://www.medizininformatik-initiative.de/fhir/ext/modul-onko/StructureDefinition/mii-pr-onko-tnm-n-kategorie" ]
      },
      "identifier": [ {
        "system": "https://bzkf.github.io/obds-to-fhir/identifiers/tnm-n-kategorie-observation-id",
        "value": "48-p_N"
      } ],
      "status": "final",
      "code": {
        "extension": [ {
          "url": "https://www.medizininformatik-initiative.de/fhir/ext/modul-onko/StructureDefinition/mii-ex-onko-tnm-cp-praefix",
          "valueCodeableConcept": {
            "coding": [ {
              "system": "https://www.uicc.org/resources/tnm",
              "code": "c"
            } ]
          }
        } ],
        "coding": [ {
          "system": "http://snomed.info/sct",
          "version": "http://snomed.info/sct/900000000000207008/version/20250501",
          "code": "399534004",
          "display": "cN category (observable entity)"
        } ]
      },
      "subject": {
        "reference": "Patient/43d8d22e39e073fbb83f221071d60fe92e947d234ada77f7401d0eb4d230a849"
      },
      "focus": [ {
        "reference": "Condition/2b8efc01441d384050dfa3aeaf09e5387eb44563ce35e2e27b40d5d1740d7abf"
      } ],
      "effectiveDateTime": "2022-10-03",
      "valueCodeableConcept": {
        "coding": [ {
          "system": "https://www.uicc.org/resources/tnm",
          "code": "N0"
        } ]
      },
      "method": {
        "coding": [ {
          "system": "https://www.medizininformatik-initiative.de/fhir/ext/modul-onko/CodeSystem/mii-cs-onko-tnm-version",
          "code": "8"
        } ]
      }
    },
    "request": {
      "method": "PUT",
      "url": "Observation/ccb1d8a000558afcd46dfd1170ae46c3d254c891833e97099147fc72414a9368"
    }
  }, {
    "fullUrl": "Observation/cf7164f61890bdfd71daef9dc43e32d46139f2d9fb5f7ac2d4245e5017365b82",
    "resource": {
      "resourceType": "Observation",
      "id": "cf7164f61890bdfd71daef9dc43e32d46139f2d9fb5f7ac2d4245e5017365b82",
      "meta": {
        "profile": [ "https://www.medizininformatik-initiative.de/fhir/ext/modul-onko/StructureDefinition/mii-pr-onko-tnm-m-kategorie" ]
      },
      "identifier": [ {
        "system": "https://bzkf.github.io/obds-to-fhir/identifiers/tnm-m-kategorie-observation-id",
        "value": "48-p_M"
      } ],
      "status": "final",
      "code": {
        "extension": [ {
          "url": "https://www.medizininformatik-initiative.de/fhir/ext/modul-onko/StructureDefinition/mii-ex-onko-tnm-cp-praefix",
          "valueCodeableConcept": {
            "coding": [ {
              "system": "https://www.uicc.org/resources/tnm",
              "code": "c"
            } ]
          }
        } ],
        "coding": [ {
          "system": "http://snomed.info/sct",
          "version": "http://snomed.info/sct/900000000000207008/version/20250501",
          "code": "399387003",
          "display": "cM category (observable entity)"
        } ]
      },
      "subject": {
        "reference": "Patient/43d8d22e39e073fbb83f221071d60fe92e947d234ada77f7401d0eb4d230a849"
      },
      "focus": [ {
        "reference": "Condition/2b8efc01441d384050dfa3aeaf09e5387eb44563ce35e2e27b40d5d1740d7abf"
      } ],
      "effectiveDateTime": "2022-10-03",
      "valueCodeableConcept": {
        "coding": [ {
          "system": "https://www.uicc.org/resources/tnm",
          "code": "M0"
        } ]
      },
      "method": {
        "coding": [ {
          "system": "https://www.medizininformatik-initiative.de/fhir/ext/modul-onko/CodeSystem/mii-cs-onko-tnm-version",
          "code": "8"
        } ]
      }
    },
    "request": {
      "method": "PUT",
      "url": "Observation/cf7164f61890bdfd71daef9dc43e32d46139f2d9fb5f7ac2d4245e5017365b82"
    }
  }, {
    "fullUrl": "Observation/6c3549429c4757ea9158550e7a97bcf2873eee5baff07ddb603d4de7398e82d2",
    "resource": {
      "resourceType": "Observation",
      "id": "6c3549429c4757ea9158550e7a97bcf2873eee5baff07ddb603d4de7398e82d2",
      "meta": {
        "profile": [ "https://www.medizininformatik-initiative.de/fhir/ext/modul-onko/StructureDefinition/mii-pr-onko-tnm-klassifikation" ]
      },
      "identifier": [ {
        "system": "https://bzkf.github.io/obds-to-fhir/identifiers/tnm-grouping-observation-id",
        "value": "48-p"
      } ],
      "status": "final",
      "code": {
        "coding": [ {
          "system": "http://snomed.info/sct",
          "version": "http://snomed.info/sct/900000000000207008/version/20250501",
          "code": "399588009",
          "display": "Pathologic TNM stage grouping"
        } ]
      },
      "subject": {
        "reference": "Patient/43d8d22e39e073fbb83f221071d60fe92e947d234ada77f7401d0eb4d230a849"
      },
      "focus": [ {
        "reference": "Condition/2b8efc01441d384050dfa3aeaf09e5387eb44563ce35e2e27b40d5d1740d7abf"
      } ],
      "effectiveDateTime": "2022-10-03",
      "valueCodeableConcept": {
        "coding": [ {
          "system": "https://www.uicc.org/resources/tnm",
          "code": "0",
          "display": "Stadium 0"
        } ]
      },
      "method": {
        "coding": [ {
          "system": "https://www.medizininformatik-initiative.de/fhir/ext/modul-onko/CodeSystem/mii-cs-onko-tnm-version",
          "code": "8"
        } ]
      },
      "hasMember": [ {
        "reference": "Observation/4277e93a0ca725aa2b16ce1cfcca5b5f9f18ab1ae9ffed4ec41b483be09fd9c8"
      }, {
        "reference": "Observation/ccb1d8a000558afcd46dfd1170ae46c3d254c891833e97099147fc72414a9368"
      }, {
        "reference": "Observation/cf7164f61890bdfd71daef9dc43e32d46139f2d9fb5f7ac2d4245e5017365b82"
      } ]
    },
    "request": {
      "method": "PUT",
      "url": "Observation/6c3549429c4757ea9158550e7a97bcf2873eee5baff07ddb603d4de7398e82d2"
    }
  }, {
    "fullUrl": "List/d1c7f88bae7347ce3687489f726bb619b240436ae19c7c5189a8d57de8b4c5c8",
    "resource": {
      "resourceType": "List",
      "id": "d1c7f88bae7347ce3687489f726bb619b240436ae19c7c5189a8d57de8b4c5c8",
      "meta": {
        "profile": [ "https://www.medizininformatik-initiative.de/fhir/ext/modul-onko/StructureDefinition/mii-pr-onko-liste-evidenz-erstdiagnose" ]
      },
      "identifier": [ {
        "system": "https://bzkf.github.io/obds-to-fhir/identifiers/erstdiagnose-evidenz-list-id",
        "value": "19-195"
      } ],
      "status": "current",
      "mode": "snapshot",
      "subject": {
        "reference": "Patient/43d8d22e39e073fbb83f221071d60fe92e947d234ada77f7401d0eb4d230a849"
      },
      "entry": [ {
        "item": {
          "reference": "Observation/ee9229bfb55adfac28d31404e6774949fe5f9e3e9f3a3a7c6c0e987a1e192d62"
        }
      }, {
        "item": {
          "reference": "Specimen/ce77359a50c9005ab6053fa70782271998c8310b83965837f65b5b0a5cece9bc"
        }
      }, {
        "item": {
          "reference": "Observation/e635685c1dd8eccfb98195fbf658b3880e72664d04be47cedf02aa55d311a7d2"
        }
      }, {
        "item": {
          "reference": "Observation/f188bf42ff1a143c3cf83257db96c935df093c6de96f214d7ce30c74e4ac2912"
        }
      }, {
        "item": {
          "reference": "Observation/87814af6d4c91da92f8b10a9a52f8124d4fdff4a609a1c7f7ad0cf82f60ad25c"
        }
      }, {
        "item": {
          "reference": "Observation/5f118ba33bdf2d33140ed017ddd1c545bdd7b8cb0139401b65906d1a33935f96"
        }
      }, {
        "item": {
          "reference": "Observation/e8d028a08aba37756f47128b2e141c960b1e06fa9460f750efe045cdb97d275f"
        }
      }, {
        "item": {
          "reference": "Observation/c38c194d0b638d00470c51d26348360a7e42d6b35dc0523fad7f378f92a9639a"
        }
      }, {
        "item": {
          "reference": "Observation/4277e93a0ca725aa2b16ce1cfcca5b5f9f18ab1ae9ffed4ec41b483be09fd9c8"
        }
      }, {
        "item": {
          "reference": "Observation/ccb1d8a000558afcd46dfd1170ae46c3d254c891833e97099147fc72414a9368"
        }
      }, {
        "item": {
          "reference": "Observation/cf7164f61890bdfd71daef9dc43e32d46139f2d9fb5f7ac2d4245e5017365b82"
        }
      }, {
        "item": {
          "reference": "Observation/6c3549429c4757ea9158550e7a97bcf2873eee5baff07ddb603d4de7398e82d2"
        }
      } ]
    },
    "request": {
      "method": "PUT",
      "url": "List/d1c7f88bae7347ce3687489f726bb619b240436ae19c7c5189a8d57de8b4c5c8"
    }
  } ]
}