{
  "resourceType": "Bundle",
  "id": "17fd07c897c1b71242be625380c0f570dd1262c3e8e6716c09819705494d65b5",
  "type": "transaction",
  "entry": [ {
    "fullUrl": "Patient/17fd07c897c1b71242be625380c0f570dd1262c3e8e6716c09819705494d65b5",
    "resource": {
      "resourceType": "Patient",
      "id": "17fd07c897c1b71242be625380c0f570dd1262c3e8e6716c09819705494d65b5",
      "meta": {
        "profile": [ "https://www.medizininformatik-initiative.de/fhir/core/modul-person/StructureDefinition/PatientPseudonymisiert" ]
      },
      "identifier": [ {
        "type": {
          "coding": [ {
            "system": "http://terminology.hl7.org/CodeSystem/v2-0203",
            "code": "MR",
            "display": "Medical record number"
          }, {
            "system": "http://terminology.hl7.org/CodeSystem/v3-ObservationValue",
            "code": "PSEUDED",
            "display": "pseudonymized"
          } ]
        },
        "system": "https://bzkf.github.io/obds-to-fhir/identifiers/patient-id",
        "value": "40"
      } ],
      "gender": "female",
      "birthDate": "1980-01-01",
      "address": [ {
        "type": "both",
        "postalCode": "98765",
        "country": "DE"
      } ]
    },
    "request": {
      "method": "PUT",
      "url": "Patient/17fd07c897c1b71242be625380c0f570dd1262c3e8e6716c09819705494d65b5"
    }
  }, {
    "fullUrl": "Condition/4393db103a425cb0cd10bbe605906f715ceac791e2c02e59e73069b9f136cddd",
    "resource": {
      "resourceType": "Condition",
      "id": "4393db103a425cb0cd10bbe605906f715ceac791e2c02e59e73069b9f136cddd",
      "meta": {
        "profile": [ "https://www.medizininformatik-initiative.de/fhir/ext/modul-onko/StructureDefinition/mii-pr-onko-diagnose-primaertumor" ],
        "tag": [ {
          "system": "http://snomed.info/sct",
          "version": "http://snomed.info/sct/900000000000207008/version/20250501",
          "code": "255599008",
          "display": "Incomplete (qualifier value)"
        } ]
      },
      "extension": [ {
        "url": "https://www.medizininformatik-initiative.de/fhir/ext/modul-onko/StructureDefinition/mii-ex-onko-histology-morphology-behavior-icdo3",
        "valueCodeableConcept": {
          "coding": [ {
            "system": "http://terminology.hl7.org/CodeSystem/icd-o-3",
            "version": "33",
            "code": "8500/3"
          } ]
        }
      }, {
        "url": "http://hl7.org/fhir/StructureDefinition/condition-assertedDate",
        "valueDateTime": "2019-10-01"
      } ],
      "identifier": [ {
        "system": "https://bzkf.github.io/obds-to-fhir/identifiers/primaerdiagnose-id",
        "value": "40-401"
      } ],
      "code": {
        "coding": [ {
          "system": "http://fhir.de/CodeSystem/bfarm/icd-10-gm",
          "version": "2019",
          "code": "C50.9"
        } ]
      },
      "bodySite": [ {
        "coding": [ {
          "system": "https://www.medizininformatik-initiative.de/fhir/ext/modul-onko/CodeSystem/mii-cs-onko-seitenlokalisation",
          "code": "R"
        }, {
          "system": "http://snomed.info/sct",
          "version": "http://snomed.info/sct/900000000000207008/version/20250501",
          "code": "24028007",
          "display": "Right (qualifier value)"
        } ]
      } ],
      "subject": {
        "reference": "Patient/17fd07c897c1b71242be625380c0f570dd1262c3e8e6716c09819705494d65b5"
      },
      "recordedDate": "2024-02-16"
    },
    "request": {
      "method": "PUT",
      "url": "Condition/4393db103a425cb0cd10bbe605906f715ceac791e2c02e59e73069b9f136cddd"
    }
  }, {
    "fullUrl": "Specimen/f88f01f8376de7db60d4497121febc5659d9877f9268d25f6ca240fac028dc16",
    "resource": {
      "resourceType": "Specimen",
      "id": "f88f01f8376de7db60d4497121febc5659d9877f9268d25f6ca240fac028dc16",
      "meta": {
        "profile": [ "https://www.medizininformatik-initiative.de/fhir/ext/modul-onko/StructureDefinition/mii-pr-onko-specimen" ]
      },
      "identifier": [ {
        "system": "https://bzkf.github.io/obds-to-fhir/identifiers/specimen-id",
        "value": "269"
      } ],
      "accessionIdentifier": {
        "value": "H000520-22"
      },
      "subject": {
        "reference": "Patient/17fd07c897c1b71242be625380c0f570dd1262c3e8e6716c09819705494d65b5"
      },
      "collection": {
        "collectedDateTime": "2022-08-05"
      }
    },
    "request": {
      "method": "PUT",
      "url": "Specimen/f88f01f8376de7db60d4497121febc5659d9877f9268d25f6ca240fac028dc16"
    }
  }, {
    "fullUrl": "Observation/69ed882dfcf53b5cd1ba5433aba1ab6df6c5d24c8acf4f7dc212f09eed8791d3",
    "resource": {
      "resourceType": "Observation",
      "id": "69ed882dfcf53b5cd1ba5433aba1ab6df6c5d24c8acf4f7dc212f09eed8791d3",
      "meta": {
        "profile": [ "https://www.medizininformatik-initiative.de/fhir/ext/modul-onko/StructureDefinition/mii-pr-onko-histologie-icdo3" ]
      },
      "identifier": [ {
        "system": "https://bzkf.github.io/obds-to-fhir/identifiers/observation-histologie-id",
        "value": "269-ICDO3-8500/3"
      } ],
      "status": "final",
      "code": {
        "coding": [ {
          "system": "http://loinc.org",
          "version": "2.80",
          "code": "59847-4",
          "display": "Histology and Behavior ICD-O-3 Cancer"
        } ]
      },
      "subject": {
        "reference": "Patient/17fd07c897c1b71242be625380c0f570dd1262c3e8e6716c09819705494d65b5"
      },
      "focus": [ {
        "reference": "Condition/4393db103a425cb0cd10bbe605906f715ceac791e2c02e59e73069b9f136cddd"
      } ],
      "effectiveDateTime": "2022-08-05",
      "valueCodeableConcept": {
        "coding": [ {
          "system": "http://terminology.hl7.org/CodeSystem/icd-o-3",
          "version": "33",
          "code": "8500/3"
        } ],
        "text": "Invasives duktales Karzinom o.n.A."
      },
      "specimen": {
        "reference": "Specimen/f88f01f8376de7db60d4497121febc5659d9877f9268d25f6ca240fac028dc16"
      }
    },
    "request": {
      "method": "PUT",
      "url": "Observation/69ed882dfcf53b5cd1ba5433aba1ab6df6c5d24c8acf4f7dc212f09eed8791d3"
    }
  }, {
    "fullUrl": "Observation/6bd43fb23b560d6bc1fe13a1fd769746e09aaee2d305a7c407e88265f197c60c",
    "resource": {
      "resourceType": "Observation",
      "id": "6bd43fb23b560d6bc1fe13a1fd769746e09aaee2d305a7c407e88265f197c60c",
      "meta": {
        "profile": [ "https://www.medizininformatik-initiative.de/fhir/ext/modul-onko/StructureDefinition/mii-pr-onko-grading" ]
      },
      "identifier": [ {
        "system": "https://bzkf.github.io/obds-to-fhir/identifiers/grading-observation-id",
        "value": "269-grading"
      } ],
      "status": "final",
      "category": [ {
        "coding": [ {
          "system": "http://terminology.hl7.org/CodeSystem/observation-category",
          "code": "laboratory"
        } ]
      } ],
      "code": {
        "coding": [ {
          "system": "http://loinc.org",
          "version": "2.80",
          "code": "33732-9",
          "display": "Histology grade [Identifier] in Cancer specimen"
        }, {
          "system": "http://snomed.info/sct",
          "version": "http://snomed.info/sct/900000000000207008/version/20250501",
          "code": "371469007",
          "display": "Histologic grade of neoplasm (observable entity)"
        } ]
      },
      "subject": {
        "reference": "Patient/17fd07c897c1b71242be625380c0f570dd1262c3e8e6716c09819705494d65b5"
      },
      "focus": [ {
        "reference": "Condition/4393db103a425cb0cd10bbe605906f715ceac791e2c02e59e73069b9f136cddd"
      } ],
      "effectiveDateTime": "2022-08-05",
      "valueCodeableConcept": {
        "coding": [ {
          "system": "https://www.medizininformatik-initiative.de/fhir/ext/modul-onko/CodeSystem/mii-cs-onko-grading",
          "code": "3"
        } ]
      },
      "specimen": {
        "reference": "Specimen/f88f01f8376de7db60d4497121febc5659d9877f9268d25f6ca240fac028dc16"
      }
    },
    "request": {
      "method": "PUT",
      "url": "Observation/6bd43fb23b560d6bc1fe13a1fd769746e09aaee2d305a7c407e88265f197c60c"
    }
  }, {
    "fullUrl": "Observation/ae9e3f9f85a322a386aeff9865ec655a895363dce01ef7b3c0bbe18f62f0a0d5",
    "resource": {
      "resourceType": "Observation",
      "id": "ae9e3f9f85a322a386aeff9865ec655a895363dce01ef7b3c0bbe18f62f0a0d5",
      "meta": {
        "profile": [ "https://www.medizininformatik-initiative.de/fhir/ext/modul-onko/StructureDefinition/mii-pr-onko-anzahl-befallene-lymphknoten" ]
      },
      "identifier": [ {
        "system": "https://bzkf.github.io/obds-to-fhir/identifiers/observation-histologie-id",
        "value": "269_befallen"
      } ],
      "status": "final",
      "category": [ {
        "coding": [ {
          "system": "http://terminology.hl7.org/CodeSystem/observation-category",
          "code": "laboratory"
        } ]
      } ],
      "code": {
        "coding": [ {
          "system": "http://loinc.org",
          "version": "2.80",
          "code": "21893-3"
        }, {
          "system": "http://snomed.info/sct",
          "version": "http://snomed.info/sct/900000000000207008/version/20250501",
          "code": "443527007"
        } ]
      },
      "subject": {
        "reference": "Patient/17fd07c897c1b71242be625380c0f570dd1262c3e8e6716c09819705494d65b5"
      },
      "focus": [ {
        "reference": "Condition/4393db103a425cb0cd10bbe605906f715ceac791e2c02e59e73069b9f136cddd"
      } ],
      "effectiveDateTime": "2022-08-05",
      "valueQuantity": {
        "value": 3,
        "unit": "#",
        "system": "http://unitsofmeasure.org",
        "code": "1"
      },
      "specimen": {
        "reference": "Specimen/f88f01f8376de7db60d4497121febc5659d9877f9268d25f6ca240fac028dc16"
      }
    },
    "request": {
      "method": "PUT",
      "url": "Observation/ae9e3f9f85a322a386aeff9865ec655a895363dce01ef7b3c0bbe18f62f0a0d5"
    }
  }, {
    "fullUrl": "Observation/0d6275d20e331e61e9a435c2a2ce8906fde7507e1b96e28aaa804f4ac5e31ca0",
    "resource": {
      "resourceType": "Observation",
      "id": "0d6275d20e331e61e9a435c2a2ce8906fde7507e1b96e28aaa804f4ac5e31ca0",
      "meta": {
        "profile": [ "https://www.medizininformatik-initiative.de/fhir/ext/modul-onko/StructureDefinition/mii-pr-onko-anzahl-untersuchte-lymphknoten" ]
      },
      "identifier": [ {
        "system": "https://bzkf.github.io/obds-to-fhir/identifiers/observation-histologie-id",
        "value": "269_untersucht"
      } ],
      "status": "final",
      "category": [ {
        "coding": [ {
          "system": "http://terminology.hl7.org/CodeSystem/observation-category",
          "code": "laboratory"
        } ]
      } ],
      "code": {
        "coding": [ {
          "system": "http://loinc.org",
          "version": "2.80",
          "code": "21894-1"
        }, {
          "system": "http://snomed.info/sct",
          "version": "http://snomed.info/sct/900000000000207008/version/20250501",
          "code": "444025001"
        } ]
      },
      "subject": {
        "reference": "Patient/17fd07c897c1b71242be625380c0f570dd1262c3e8e6716c09819705494d65b5"
      },
      "focus": [ {
        "reference": "Condition/4393db103a425cb0cd10bbe605906f715ceac791e2c02e59e73069b9f136cddd"
      } ],
      "effectiveDateTime": "2022-08-05",
      "valueQuantity": {
        "value": 6,
        "unit": "#",
        "system": "http://unitsofmeasure.org",
        "code": "1"
      },
      "specimen": {
        "reference": "Specimen/f88f01f8376de7db60d4497121febc5659d9877f9268d25f6ca240fac028dc16"
      }
    },
    "request": {
      "method": "PUT",
      "url": "Observation/0d6275d20e331e61e9a435c2a2ce8906fde7507e1b96e28aaa804f4ac5e31ca0"
    }
  }, {
    "fullUrl": "Observation/b8b50be71023a843c09a6000c68019843fa231afbb4a31d878ce4df5f144363f",
    "resource": {
      "resourceType": "Observation",
      "id": "b8b50be71023a843c09a6000c68019843fa231afbb4a31d878ce4df5f144363f",
      "meta": {
        "profile": [ "https://www.medizininformatik-initiative.de/fhir/ext/modul-onko/StructureDefinition/mii-pr-onko-anzahl-befallene-sentinel-lymphknoten" ]
      },
      "identifier": [ {
        "system": "https://bzkf.github.io/obds-to-fhir/identifiers/observation-histologie-id",
        "value": "269_befallen_sentinel"
      } ],
      "status": "final",
      "category": [ {
        "coding": [ {
          "system": "http://terminology.hl7.org/CodeSystem/observation-category",
          "code": "laboratory"
        } ]
      } ],
      "code": {
        "coding": [ {
          "system": "http://loinc.org",
          "version": "2.80",
          "code": "92832-5"
        }, {
          "system": "http://snomed.info/sct",
          "version": "http://snomed.info/sct/900000000000207008/version/20250501",
          "code": "1264491009"
        } ]
      },
      "subject": {
        "reference": "Patient/17fd07c897c1b71242be625380c0f570dd1262c3e8e6716c09819705494d65b5"
      },
      "focus": [ {
        "reference": "Condition/4393db103a425cb0cd10bbe605906f715ceac791e2c02e59e73069b9f136cddd"
      } ],
      "effectiveDateTime": "2022-08-05",
      "valueQuantity": {
        "value": 1,
        "unit": "#",
        "system": "http://unitsofmeasure.org",
        "code": "1"
      },
      "specimen": {
        "reference": "Specimen/f88f01f8376de7db60d4497121febc5659d9877f9268d25f6ca240fac028dc16"
      }
    },
    "request": {
      "method": "PUT",
      "url": "Observation/b8b50be71023a843c09a6000c68019843fa231afbb4a31d878ce4df5f144363f"
    }
  }, {
    "fullUrl": "Observation/db8a746bb6639e08043acf64d6d6a98296c714100692ef06b6d4536c1199912e",
    "resource": {
      "resourceType": "Observation",
      "id": "db8a746bb6639e08043acf64d6d6a98296c714100692ef06b6d4536c1199912e",
      "meta": {
        "profile": [ "https://www.medizininformatik-initiative.de/fhir/ext/modul-onko/StructureDefinition/mii-pr-onko-anzahl-untersuchte-sentinel-lymphknoten" ]
      },
      "identifier": [ {
        "system": "https://bzkf.github.io/obds-to-fhir/identifiers/observation-histologie-id",
        "value": "269_untersucht_sentinel"
      } ],
      "status": "final",
      "category": [ {
        "coding": [ {
          "system": "http://terminology.hl7.org/CodeSystem/observation-category",
          "code": "laboratory"
        } ]
      } ],
      "code": {
        "coding": [ {
          "system": "http://loinc.org",
          "version": "2.80",
          "code": "85347-3"
        }, {
          "system": "http://snomed.info/sct",
          "version": "http://snomed.info/sct/900000000000207008/version/20250501",
          "code": "444411008"
        } ]
      },
      "subject": {
        "reference": "Patient/17fd07c897c1b71242be625380c0f570dd1262c3e8e6716c09819705494d65b5"
      },
      "focus": [ {
        "reference": "Condition/4393db103a425cb0cd10bbe605906f715ceac791e2c02e59e73069b9f136cddd"
      } ],
      "effectiveDateTime": "2022-08-05",
      "valueQuantity": {
        "value": 2,
        "unit": "#",
        "system": "http://unitsofmeasure.org",
        "code": "1"
      },
      "specimen": {
        "reference": "Specimen/f88f01f8376de7db60d4497121febc5659d9877f9268d25f6ca240fac028dc16"
      }
    },
    "request": {
      "method": "PUT",
      "url": "Observation/db8a746bb6639e08043acf64d6d6a98296c714100692ef06b6d4536c1199912e"
    }
  }, {
    "fullUrl": "Observation/7df77964205346253bbdb46fe59d65a1ba53c8d67248d60995a97143b00fdffb",
    "resource": {
      "resourceType": "Observation",
      "id": "7df77964205346253bbdb46fe59d65a1ba53c8d67248d60995a97143b00fdffb",
      "meta": {
        "profile": [ "https://www.medizininformatik-initiative.de/fhir/ext/modul-onko/StructureDefinition/mii-pr-onko-fernmetastasen" ]
      },
      "identifier": [ {
        "system": "https://bzkf.github.io/obds-to-fhir/identifiers/fernmetastasen-id",
        "value": "PAT_70101-Pathologie-0"
      } ],
      "status": "final",
      "code": {
        "coding": [ {
          "system": "http://snomed.info/sct",
          "version": "http://snomed.info/sct/900000000000207008/version/20250501",
          "code": "385421009",
          "display": "Anatomic location of metastatic spread of malignant neoplasm (observable entity)"
        } ]
      },
      "subject": {
        "reference": "Patient/17fd07c897c1b71242be625380c0f570dd1262c3e8e6716c09819705494d65b5"
      },
      "focus": [ {
        "reference": "Condition/4393db103a425cb0cd10bbe605906f715ceac791e2c02e59e73069b9f136cddd"
      } ],
      "effectiveDateTime": "2022-08-05",
      "valueCodeableConcept": {
        "coding": [ {
          "system": "https://www.medizininformatik-initiative.de/fhir/ext/modul-onko/CodeSystem/mii-cs-onko-fernmetastasen",
          "code": "PUL"
        } ]
      }
    },
    "request": {
      "method": "PUT",
      "url": "Observation/7df77964205346253bbdb46fe59d65a1ba53c8d67248d60995a97143b00fdffb"
    }
  }, {
    "fullUrl": "Observation/ebb1dbcacb9599c1e16de05fdd9473edcc1722fd5f201ff4e76bef98da1173f8",
    "resource": {
      "resourceType": "Observation",
      "id": "ebb1dbcacb9599c1e16de05fdd9473edcc1722fd5f201ff4e76bef98da1173f8",
      "meta": {
        "profile": [ "https://www.medizininformatik-initiative.de/fhir/ext/modul-onko/StructureDefinition/mii-pr-onko-genetische-variante" ]
      },
      "identifier": [ {
        "system": "https://bzkf.github.io/obds-to-fhir/identifiers/genetische-variante-id",
        "value": "GenetischeAusprägung-PathologiePAT_70101M0"
      } ],
      "status": "final",
      "category": [ {
        "coding": [ {
          "system": "http://terminology.hl7.org/CodeSystem/observation-category",
          "code": "laboratory",
          "display": "Laboratory"
        } ]
      } ],
      "code": {
        "coding": [ {
          "system": "http://loinc.org",
          "version": "2.80",
          "code": "69548-6",
          "display": "Genetic variant assessment"
        } ]
      },
      "subject": {
        "reference": "Patient/17fd07c897c1b71242be625380c0f570dd1262c3e8e6716c09819705494d65b5"
      },
      "focus": [ {
        "reference": "Condition/4393db103a425cb0cd10bbe605906f715ceac791e2c02e59e73069b9f136cddd"
      } ],
      "effectiveDateTime": "2022-08-05",
      "interpretation": [ {
        "coding": [ {
          "system": "https://www.medizininformatik-initiative.de/fhir/ext/modul-onko/CodeSystem/mii-cs-onko-genetische-variante-auspraegung",
          "code": "M"
        } ]
      } ],
      "note": [ {
        "text": "BRCA 1"
      } ]
    },
    "request": {
      "method": "PUT",
      "url": "Observation/ebb1dbcacb9599c1e16de05fdd9473edcc1722fd5f201ff4e76bef98da1173f8"
    }
  }, {
    "fullUrl": "Observation/775f8a840ac8130756c0b865c66951d04022b98e99f1c6629a2fcbcd03348d3d",
    "resource": {
      "resourceType": "Observation",
      "id": "775f8a840ac8130756c0b865c66951d04022b98e99f1c6629a2fcbcd03348d3d",
      "meta": {
        "profile": [ "https://www.medizininformatik-initiative.de/fhir/ext/modul-onko/StructureDefinition/mii-pr-onko-genetische-variante" ]
      },
      "identifier": [ {
        "system": "https://bzkf.github.io/obds-to-fhir/identifiers/genetische-variante-id",
        "value": "GenetischeAusprägung-PathologiePAT_701011"
      } ],
      "status": "final",
      "category": [ {
        "coding": [ {
          "system": "http://terminology.hl7.org/CodeSystem/observation-category",
          "code": "laboratory",
          "display": "Laboratory"
        } ]
      } ],
      "code": {
        "coding": [ {
          "system": "http://loinc.org",
          "version": "2.80",
          "code": "69548-6",
          "display": "Genetic variant assessment"
        } ]
      },
      "subject": {
        "reference": "Patient/17fd07c897c1b71242be625380c0f570dd1262c3e8e6716c09819705494d65b5"
      },
      "focus": [ {
        "reference": "Condition/4393db103a425cb0cd10bbe605906f715ceac791e2c02e59e73069b9f136cddd"
      } ],
      "effectiveDateTime": "2022-08-05",
      "interpretation": [ {
        "coding": [ {
          "system": "https://www.medizininformatik-initiative.de/fhir/ext/modul-onko/CodeSystem/mii-cs-onko-genetische-variante-auspraegung",
          "code": "S"
        } ],
        "text": "Translation"
      } ],
      "note": [ {
        "text": "BRCA 2"
      } ]
    },
    "request": {
      "method": "PUT",
      "url": "Observation/775f8a840ac8130756c0b865c66951d04022b98e99f1c6629a2fcbcd03348d3d"
    }
  }, {
    "fullUrl": "Observation/2b437a9459d9e30c30c06264c7f46c6edc1ed4239e9e5194bc3f082f0d041145",
    "resource": {
      "resourceType": "Observation",
      "id": "2b437a9459d9e30c30c06264c7f46c6edc1ed4239e9e5194bc3f082f0d041145",
      "meta": {
        "profile": [ "https://www.medizininformatik-initiative.de/fhir/ext/modul-onko/StructureDefinition/mii-pr-onko-tnm-t-kategorie" ]
      },
      "identifier": [ {
        "system": "https://bzkf.github.io/obds-to-fhir/identifiers/tnm-t-kategorie-observation-id",
        "value": "256-p_T"
      } ],
      "status": "final",
      "code": {
        "extension": [ {
          "url": "https://www.medizininformatik-initiative.de/fhir/ext/modul-onko/StructureDefinition/mii-ex-onko-tnm-cp-praefix",
          "valueCodeableConcept": {
            "coding": [ {
              "system": "https://www.uicc.org/resources/tnm",
              "code": "p"
            } ]
          }
        } ],
        "coding": [ {
          "system": "http://snomed.info/sct",
          "version": "http://snomed.info/sct/900000000000207008/version/20250501",
          "code": "384625004",
          "display": "pT category (observable entity)"
        } ]
      },
      "subject": {
        "reference": "Patient/17fd07c897c1b71242be625380c0f570dd1262c3e8e6716c09819705494d65b5"
      },
      "focus": [ {
        "reference": "Condition/4393db103a425cb0cd10bbe605906f715ceac791e2c02e59e73069b9f136cddd"
      } ],
      "effectiveDateTime": "2022-08-05",
      "valueCodeableConcept": {
        "coding": [ {
          "system": "https://www.uicc.org/resources/tnm",
          "code": "T4a"
        } ]
      },
      "method": {
        "coding": [ {
          "system": "https://www.medizininformatik-initiative.de/fhir/ext/modul-onko/CodeSystem/mii-cs-onko-tnm-version",
          "code": "8"
        } ]
      }
    },
    "request": {
      "method": "PUT",
      "url": "Observation/2b437a9459d9e30c30c06264c7f46c6edc1ed4239e9e5194bc3f082f0d041145"
    }
  }, {
    "fullUrl": "Observation/efa548fc13e32d617c44ef6125f6b3a2fc5064c753102da807110b56b2730057",
    "resource": {
      "resourceType": "Observation",
      "id": "efa548fc13e32d617c44ef6125f6b3a2fc5064c753102da807110b56b2730057",
      "meta": {
        "profile": [ "https://www.medizininformatik-initiative.de/fhir/ext/modul-onko/StructureDefinition/mii-pr-onko-tnm-n-kategorie" ]
      },
      "identifier": [ {
        "system": "https://bzkf.github.io/obds-to-fhir/identifiers/tnm-n-kategorie-observation-id",
        "value": "256-p_N"
      } ],
      "status": "final",
      "code": {
        "extension": [ {
          "url": "https://www.medizininformatik-initiative.de/fhir/ext/modul-onko/StructureDefinition/mii-ex-onko-tnm-cp-praefix",
          "valueCodeableConcept": {
            "coding": [ {
              "system": "https://www.uicc.org/resources/tnm",
              "code": "p"
            } ]
          }
        } ],
        "coding": [ {
          "system": "http://snomed.info/sct",
          "version": "http://snomed.info/sct/900000000000207008/version/20250501",
          "code": "371494008",
          "display": "pN category (observable entity)"
        } ]
      },
      "subject": {
        "reference": "Patient/17fd07c897c1b71242be625380c0f570dd1262c3e8e6716c09819705494d65b5"
      },
      "focus": [ {
        "reference": "Condition/4393db103a425cb0cd10bbe605906f715ceac791e2c02e59e73069b9f136cddd"
      } ],
      "effectiveDateTime": "2022-08-05",
      "valueCodeableConcept": {
        "coding": [ {
          "system": "https://www.uicc.org/resources/tnm",
          "code": "N1a"
        } ]
      },
      "method": {
        "coding": [ {
          "system": "https://www.medizininformatik-initiative.de/fhir/ext/modul-onko/CodeSystem/mii-cs-onko-tnm-version",
          "code": "8"
        } ]
      }
    },
    "request": {
      "method": "PUT",
      "url": "Observation/efa548fc13e32d617c44ef6125f6b3a2fc5064c753102da807110b56b2730057"
    }
  }, {
    "fullUrl": "Observation/a928f3309d813f3762f49f2164522bc0a995deb8ff3117d17c416643e3ec0bbd",
    "resource": {
      "resourceType": "Observation",
      "id": "a928f3309d813f3762f49f2164522bc0a995deb8ff3117d17c416643e3ec0bbd",
      "meta": {
        "profile": [ "https://www.medizininformatik-initiative.de/fhir/ext/modul-onko/StructureDefinition/mii-pr-onko-tnm-m-kategorie" ]
      },
      "identifier": [ {
        "system": "https://bzkf.github.io/obds-to-fhir/identifiers/tnm-m-kategorie-observation-id",
        "value": "256-p_M"
      } ],
      "status": "final",
      "code": {
        "extension": [ {
          "url": "https://www.medizininformatik-initiative.de/fhir/ext/modul-onko/StructureDefinition/mii-ex-onko-tnm-cp-praefix",
          "valueCodeableConcept": {
            "coding": [ {
              "system": "https://www.uicc.org/resources/tnm",
              "code": "p"
            } ]
          }
        } ],
        "coding": [ {
          "system": "http://snomed.info/sct",
          "version": "http://snomed.info/sct/900000000000207008/version/20250501",
          "code": "371497001",
          "display": "pM category (observable entity)"
        } ]
      },
      "subject": {
        "reference": "Patient/17fd07c897c1b71242be625380c0f570dd1262c3e8e6716c09819705494d65b5"
      },
      "focus": [ {
        "reference": "Condition/4393db103a425cb0cd10bbe605906f715ceac791e2c02e59e73069b9f136cddd"
      } ],
      "effectiveDateTime": "2022-08-05",
      "valueCodeableConcept": {
        "coding": [ {
          "system": "https://www.uicc.org/resources/tnm",
          "code": "M1"
        } ]
      },
      "method": {
        "coding": [ {
          "system": "https://www.medizininformatik-initiative.de/fhir/ext/modul-onko/CodeSystem/mii-cs-onko-tnm-version",
          "code": "8"
        } ]
      }
    },
    "request": {
      "method": "PUT",
      "url": "Observation/a928f3309d813f3762f49f2164522bc0a995deb8ff3117d17c416643e3ec0bbd"
    }
  }, {
    "fullUrl": "Observation/37942ed28557447de46bead6a16883bfb0977fd13ae7e1e2cee83d76aaee05c3",
    "resource": {
      "resourceType": "Observation",
      "id": "37942ed28557447de46bead6a16883bfb0977fd13ae7e1e2cee83d76aaee05c3",
      "meta": {
        "profile": [ "https://www.medizininformatik-initiative.de/fhir/ext/modul-onko/StructureDefinition/mii-pr-onko-tnm-m-symbol" ]
      },
      "identifier": [ {
        "system": "https://bzkf.github.io/obds-to-fhir/identifiers/tnm-m-symbol-observation-id",
        "value": "256-p_m"
      } ],
      "status": "final",
      "code": {
        "coding": [ {
          "system": "http://loinc.org",
          "version": "2.80",
          "code": "42030-7"
        } ]
      },
      "subject": {
        "reference": "Patient/17fd07c897c1b71242be625380c0f570dd1262c3e8e6716c09819705494d65b5"
      },
      "focus": [ {
        "reference": "Condition/4393db103a425cb0cd10bbe605906f715ceac791e2c02e59e73069b9f136cddd"
      } ],
      "effectiveDateTime": "2022-08-05",
      "valueCodeableConcept": {
        "coding": [ {
          "system": "https://www.uicc.org/resources/tnm",
          "code": "m"
        } ]
      },
      "method": {
        "coding": [ {
          "system": "https://www.medizininformatik-initiative.de/fhir/ext/modul-onko/CodeSystem/mii-cs-onko-tnm-version",
          "code": "8"
        } ]
      }
    },
    "request": {
      "method": "PUT",
      "url": "Observation/37942ed28557447de46bead6a16883bfb0977fd13ae7e1e2cee83d76aaee05c3"
    }
  }, {
    "fullUrl": "Observation/9f3a1c0f4252d68072f623b142f32709407dd36f86186ee09129f2062a9abc29",
    "resource": {
      "resourceType": "Observation",
      "id": "9f3a1c0f4252d68072f623b142f32709407dd36f86186ee09129f2062a9abc29",
      "meta": {
        "profile": [ "https://www.medizininformatik-initiative.de/fhir/ext/modul-onko/StructureDefinition/mii-pr-onko-tnm-l-kategorie" ]
      },
      "identifier": [ {
        "system": "https://bzkf.github.io/obds-to-fhir/identifiers/tnm-l-kategorie-observation-id",
        "value": "256-p_L"
      } ],
      "status": "final",
      "code": {
        "coding": [ {
          "system": "http://snomed.info/sct",
          "version": "http://snomed.info/sct/900000000000207008/version/20250501",
          "code": "395715009"
        } ]
      },
      "subject": {
        "reference": "Patient/17fd07c897c1b71242be625380c0f570dd1262c3e8e6716c09819705494d65b5"
      },
      "focus": [ {
        "reference": "Condition/4393db103a425cb0cd10bbe605906f715ceac791e2c02e59e73069b9f136cddd"
      } ],
      "effectiveDateTime": "2022-08-05",
      "valueCodeableConcept": {
        "coding": [ {
          "system": "https://www.uicc.org/resources/tnm",
          "code": "L1"
        } ]
      },
      "method": {
        "coding": [ {
          "system": "https://www.medizininformatik-initiative.de/fhir/ext/modul-onko/CodeSystem/mii-cs-onko-tnm-version",
          "code": "8"
        } ]
      }
    },
    "request": {
      "method": "PUT",
      "url": "Observation/9f3a1c0f4252d68072f623b142f32709407dd36f86186ee09129f2062a9abc29"
    }
  }, {
    "fullUrl": "Observation/499f425104b351c198bc6c5818c5534bfda8b06202cc7b0c2aed2d74972480ed",
    "resource": {
      "resourceType": "Observation",
      "id": "499f425104b351c198bc6c5818c5534bfda8b06202cc7b0c2aed2d74972480ed",
      "meta": {
        "profile": [ "https://www.medizininformatik-initiative.de/fhir/ext/modul-onko/StructureDefinition/mii-pr-onko-tnm-pn-kategorie" ]
      },
      "identifier": [ {
        "system": "https://bzkf.github.io/obds-to-fhir/identifiers/tnm-pn-kategorie-observation-id",
        "value": "256-p_Pn"
      } ],
      "status": "final",
      "code": {
        "coding": [ {
          "system": "http://snomed.info/sct",
          "version": "http://snomed.info/sct/900000000000207008/version/20250501",
          "code": "371513001"
        } ]
      },
      "subject": {
        "reference": "Patient/17fd07c897c1b71242be625380c0f570dd1262c3e8e6716c09819705494d65b5"
      },
      "focus": [ {
        "reference": "Condition/4393db103a425cb0cd10bbe605906f715ceac791e2c02e59e73069b9f136cddd"
      } ],
      "effectiveDateTime": "2022-08-05",
      "valueCodeableConcept": {
        "coding": [ {
          "system": "https://www.uicc.org/resources/tnm",
          "code": "Pn0"
        } ]
      },
      "method": {
        "coding": [ {
          "system": "https://www.medizininformatik-initiative.de/fhir/ext/modul-onko/CodeSystem/mii-cs-onko-tnm-version",
          "code": "8"
        } ]
      }
    },
    "request": {
      "method": "PUT",
      "url": "Observation/499f425104b351c198bc6c5818c5534bfda8b06202cc7b0c2aed2d74972480ed"
    }
  }, {
    "fullUrl": "Observation/ee61d23a75eca9e3247e1ed50314cb82b7c1fcaa179ffc42d238695acc7c409c",
    "resource": {
      "resourceType": "Observation",
      "id": "ee61d23a75eca9e3247e1ed50314cb82b7c1fcaa179ffc42d238695acc7c409c",
      "meta": {
        "profile": [ "https://www.medizininformatik-initiative.de/fhir/ext/modul-onko/StructureDefinition/mii-pr-onko-tnm-r-symbol" ]
      },
      "identifier": [ {
        "system": "https://bzkf.github.io/obds-to-fhir/identifiers/tnm-r-symbol-observation-id",
        "value": "256-p_r"
      } ],
      "status": "final",
      "code": {
        "coding": [ {
          "system": "http://loinc.org",
          "version": "2.80",
          "code": "101659-1"
        } ]
      },
      "subject": {
        "reference": "Patient/17fd07c897c1b71242be625380c0f570dd1262c3e8e6716c09819705494d65b5"
      },
      "focus": [ {
        "reference": "Condition/4393db103a425cb0cd10bbe605906f715ceac791e2c02e59e73069b9f136cddd"
      } ],
      "effectiveDateTime": "2022-08-05",
      "valueCodeableConcept": {
        "coding": [ {
          "system": "http://snomed.info/sct",
          "version": "http://snomed.info/sct/900000000000207008/version/20250501",
          "code": "421188008"
        } ]
      },
      "method": {
        "coding": [ {
          "system": "https://www.medizininformatik-initiative.de/fhir/ext/modul-onko/CodeSystem/mii-cs-onko-tnm-version",
          "code": "8"
        } ]
      }
    },
    "request": {
      "method": "PUT",
      "url": "Observation/ee61d23a75eca9e3247e1ed50314cb82b7c1fcaa179ffc42d238695acc7c409c"
    }
  }, {
    "fullUrl": "Observation/5d131167724bd7410af357c1aa99608a3d790557b132ca325ae008e1ddd534a3",
    "resource": {
      "resourceType": "Observation",
      "id": "5d131167724bd7410af357c1aa99608a3d790557b132ca325ae008e1ddd534a3",
      "meta": {
        "profile": [ "https://www.medizininformatik-initiative.de/fhir/ext/modul-onko/StructureDefinition/mii-pr-onko-tnm-v-kategorie" ]
      },
      "identifier": [ {
        "system": "https://bzkf.github.io/obds-to-fhir/identifiers/tnm-v-kategorie-observation-id",
        "value": "256-p_V"
      } ],
      "status": "final",
      "code": {
        "coding": [ {
          "system": "http://snomed.info/sct",
          "version": "http://snomed.info/sct/900000000000207008/version/20250501",
          "code": "371493002"
        } ]
      },
      "subject": {
        "reference": "Patient/17fd07c897c1b71242be625380c0f570dd1262c3e8e6716c09819705494d65b5"
      },
      "focus": [ {
        "reference": "Condition/4393db103a425cb0cd10bbe605906f715ceac791e2c02e59e73069b9f136cddd"
      } ],
      "effectiveDateTime": "2022-08-05",
      "valueCodeableConcept": {
        "coding": [ {
          "system": "https://www.uicc.org/resources/tnm",
          "code": "V1"
        } ]
      },
      "method": {
        "coding": [ {
          "system": "https://www.medizininformatik-initiative.de/fhir/ext/modul-onko/CodeSystem/mii-cs-onko-tnm-version",
          "code": "8"
        } ]
      }
    },
    "request": {
      "method": "PUT",
      "url": "Observation/5d131167724bd7410af357c1aa99608a3d790557b132ca325ae008e1ddd534a3"
    }
  }, {
    "fullUrl": "Observation/435bfaeaae2955245b7721659b1d9a1cfbe03e75e83e3ae54226dc1600435a0f",
    "resource": {
      "resourceType": "Observation",
      "id": "435bfaeaae2955245b7721659b1d9a1cfbe03e75e83e3ae54226dc1600435a0f",
      "meta": {
        "profile": [ "https://www.medizininformatik-initiative.de/fhir/ext/modul-onko/StructureDefinition/mii-pr-onko-tnm-y-symbol" ]
      },
      "identifier": [ {
        "system": "https://bzkf.github.io/obds-to-fhir/identifiers/tnm-y-symbol-observation-id",
        "value": "256-p_y"
      } ],
      "status": "final",
      "code": {
        "coding": [ {
          "system": "http://loinc.org",
          "version": "2.80",
          "code": "101658-3"
        } ]
      },
      "subject": {
        "reference": "Patient/17fd07c897c1b71242be625380c0f570dd1262c3e8e6716c09819705494d65b5"
      },
      "focus": [ {
        "reference": "Condition/4393db103a425cb0cd10bbe605906f715ceac791e2c02e59e73069b9f136cddd"
      } ],
      "effectiveDateTime": "2022-08-05",
      "valueCodeableConcept": {
        "coding": [ {
          "system": "http://snomed.info/sct",
          "version": "http://snomed.info/sct/900000000000207008/version/20250501",
          "code": "421755005"
        } ]
      },
      "method": {
        "coding": [ {
          "system": "https://www.medizininformatik-initiative.de/fhir/ext/modul-onko/CodeSystem/mii-cs-onko-tnm-version",
          "code": "8"
        } ]
      }
    },
    "request": {
      "method": "PUT",
      "url": "Observation/435bfaeaae2955245b7721659b1d9a1cfbe03e75e83e3ae54226dc1600435a0f"
    }
  }, {
    "fullUrl": "Observation/96558616b472d81a721f094d88b6886081f7e5b15584fcfce80f53ffe6e218c4",
    "resource": {
      "resourceType": "Observation",
      "id": "96558616b472d81a721f094d88b6886081f7e5b15584fcfce80f53ffe6e218c4",
      "meta": {
        "profile": [ "https://www.medizininformatik-initiative.de/fhir/ext/modul-onko/StructureDefinition/mii-pr-onko-tnm-klassifikation" ]
      },
      "identifier": [ {
        "system": "https://bzkf.github.io/obds-to-fhir/identifiers/tnm-grouping-observation-id",
        "value": "256-p"
      } ],
      "status": "final",
      "code": {
        "coding": [ {
          "system": "http://snomed.info/sct",
          "version": "http://snomed.info/sct/900000000000207008/version/20250501",
          "code": "399588009",
          "display": "Pathologic TNM stage grouping"
        } ]
      },
      "subject": {
        "reference": "Patient/17fd07c897c1b71242be625380c0f570dd1262c3e8e6716c09819705494d65b5"
      },
      "focus": [ {
        "reference": "Condition/4393db103a425cb0cd10bbe605906f715ceac791e2c02e59e73069b9f136cddd"
      } ],
      "effectiveDateTime": "2022-08-05",
      "valueCodeableConcept": {
        "coding": [ {
          "system": "https://www.uicc.org/resources/tnm",
          "code": "IV",
          "display": "Stadium IV"
        } ]
      },
      "method": {
        "coding": [ {
          "system": "https://www.medizininformatik-initiative.de/fhir/ext/modul-onko/CodeSystem/mii-cs-onko-tnm-version",
          "code": "8"
        } ]
      },
      "hasMember": [ {
        "reference": "Observation/2b437a9459d9e30c30c06264c7f46c6edc1ed4239e9e5194bc3f082f0d041145"
      }, {
        "reference": "Observation/efa548fc13e32d617c44ef6125f6b3a2fc5064c753102da807110b56b2730057"
      }, {
        "reference": "Observation/a928f3309d813f3762f49f2164522bc0a995deb8ff3117d17c416643e3ec0bbd"
      }, {
        "reference": "Observation/37942ed28557447de46bead6a16883bfb0977fd13ae7e1e2cee83d76aaee05c3"
      }, {
        "reference": "Observation/9f3a1c0f4252d68072f623b142f32709407dd36f86186ee09129f2062a9abc29"
      }, {
        "reference": "Observation/499f425104b351c198bc6c5818c5534bfda8b06202cc7b0c2aed2d74972480ed"
      }, {
        "reference": "Observation/ee61d23a75eca9e3247e1ed50314cb82b7c1fcaa179ffc42d238695acc7c409c"
      }, {
        "reference": "Observation/5d131167724bd7410af357c1aa99608a3d790557b132ca325ae008e1ddd534a3"
      }, {
        "reference": "Observation/435bfaeaae2955245b7721659b1d9a1cfbe03e75e83e3ae54226dc1600435a0f"
      } ]
    },
    "request": {
      "method": "PUT",
      "url": "Observation/96558616b472d81a721f094d88b6886081f7e5b15584fcfce80f53ffe6e218c4"
    }
  }, {
    "fullUrl": "DiagnosticReport/dbd58c18b6360f5db3b0e6595a976abb94a71c176689e2dc30a156fde98fa20b",
    "resource": {
      "resourceType": "DiagnosticReport",
      "id": "dbd58c18b6360f5db3b0e6595a976abb94a71c176689e2dc30a156fde98fa20b",
      "meta": {
        "profile": [ "https://www.medizininformatik-initiative.de/fhir/ext/modul-onko/StructureDefinition/mii-pr-onko-befund" ]
      },
      "identifier": [ {
        "system": "https://bzkf.github.io/obds-to-fhir/identifiers/histologiebefund-diagnostic-report-id",
        "value": "PAT_70101"
      } ],
      "status": "final",
      "code": {
        "coding": [ {
          "system": "http://loinc.org",
          "version": "2.80",
          "code": "22034-3",
          "display": "Pathology report Cancer Narrative"
        } ]
      },
      "subject": {
        "reference": "Patient/17fd07c897c1b71242be625380c0f570dd1262c3e8e6716c09819705494d65b5"
      },
      "specimen": [ {
        "reference": "Specimen/f88f01f8376de7db60d4497121febc5659d9877f9268d25f6ca240fac028dc16"
      } ],
      "conclusion": "Lorem ipsum dolor sit amet, consetetur sadipscing elitr, sed diam nonumy eirmod tempor invidunt ut labore et dolore magna aliquyam erat, sed diam voluptua. At vero eos et accusam et justo duo dolores et ea rebum. Stet clita kasd gubergren, no sea takimata sanctus est Lorem ipsum dolor sit amet. Lorem ipsum dolor sit amet, consetetur sadipscing elitr, sed diam nonumy eirmod tempor invidunt ut labore et dolore magna aliquyam erat, sed diam voluptua. At vero eos et accusam et justo duo dolores et ea rebum. Stet clita kasd gubergren, no sea takimata sanctus est Lorem ipsum dolor sit amet."
    },
    "request": {
      "method": "PUT",
      "url": "DiagnosticReport/dbd58c18b6360f5db3b0e6595a976abb94a71c176689e2dc30a156fde98fa20b"
    }
  }, {
    "fullUrl": "Condition/4e6fc5b57a9068af3c8e475b67ae0b573d144421ede0955776d7a991ba4e91f5",
    "resource": {
      "resourceType": "Condition",
      "id": "4e6fc5b57a9068af3c8e475b67ae0b573d144421ede0955776d7a991ba4e91f5",
      "meta": {
        "profile": [ "https://www.medizininformatik-initiative.de/fhir/ext/modul-onko/StructureDefinition/mii-pr-onko-diagnose-primaertumor" ],
        "tag": [ {
          "system": "http://snomed.info/sct",
          "version": "http://snomed.info/sct/900000000000207008/version/20250501",
          "code": "255599008",
          "display": "Incomplete (qualifier value)"
        } ]
      },
      "extension": [ {
        "url": "https://www.medizininformatik-initiative.de/fhir/ext/modul-onko/StructureDefinition/mii-ex-onko-histology-morphology-behavior-icdo3",
        "valueCodeableConcept": {
          "coding": [ {
            "system": "http://terminology.hl7.org/CodeSystem/icd-o-3",
            "version": "33",
            "code": "8010/3"
          } ]
        }
      }, {
        "url": "http://hl7.org/fhir/StructureDefinition/condition-assertedDate",
        "valueDateTime": "2020-01-01"
      } ],
      "identifier": [ {
        "system": "https://bzkf.github.io/obds-to-fhir/identifiers/primaerdiagnose-id",
        "value": "40-402"
      } ],
      "code": {
        "coding": [ {
          "system": "http://fhir.de/CodeSystem/bfarm/icd-10-gm",
          "version": "2020",
          "code": "C20"
        } ]
      },
      "bodySite": [ {
        "coding": [ {
          "system": "https://www.medizininformatik-initiative.de/fhir/ext/modul-onko/CodeSystem/mii-cs-onko-seitenlokalisation",
          "code": "T"
        }, {
          "system": "http://snomed.info/sct",
          "version": "http://snomed.info/sct/900000000000207008/version/20250501",
          "code": "385432009",
          "display": "Not applicable (qualifier value)"
        } ]
      } ],
      "subject": {
        "reference": "Patient/17fd07c897c1b71242be625380c0f570dd1262c3e8e6716c09819705494d65b5"
      },
      "recordedDate": "2024-02-16"
    },
    "request": {
      "method": "PUT",
      "url": "Condition/4e6fc5b57a9068af3c8e475b67ae0b573d144421ede0955776d7a991ba4e91f5"
    }
  }, {
    "fullUrl": "Observation/7a68d8b2b6218a2b7308f67d87130d03faeec17cc979952a7ae18b5b3117973c",
    "resource": {
      "resourceType": "Observation",
      "id": "7a68d8b2b6218a2b7308f67d87130d03faeec17cc979952a7ae18b5b3117973c",
      "meta": {
        "profile": [ "https://www.medizininformatik-initiative.de/fhir/ext/modul-onko/StructureDefinition/mii-pr-onko-genetische-variante" ]
      },
      "identifier": [ {
        "system": "https://bzkf.github.io/obds-to-fhir/identifiers/genetische-variante-id",
        "value": "GenetischeAusprägung-PathologiePAT_70103W0"
      } ],
      "status": "final",
      "category": [ {
        "coding": [ {
          "system": "http://terminology.hl7.org/CodeSystem/observation-category",
          "code": "laboratory",
          "display": "Laboratory"
        } ]
      } ],
      "code": {
        "coding": [ {
          "system": "http://loinc.org",
          "version": "2.80",
          "code": "69548-6",
          "display": "Genetic variant assessment"
        } ]
      },
      "subject": {
        "reference": "Patient/17fd07c897c1b71242be625380c0f570dd1262c3e8e6716c09819705494d65b5"
      },
      "focus": [ {
        "reference": "Condition/4e6fc5b57a9068af3c8e475b67ae0b573d144421ede0955776d7a991ba4e91f5"
      } ],
      "effectiveDateTime": "2020-01-13",
      "interpretation": [ {
        "coding": [ {
          "system": "https://www.medizininformatik-initiative.de/fhir/ext/modul-onko/CodeSystem/mii-cs-onko-genetische-variante-auspraegung",
          "code": "W"
        } ]
      } ],
      "note": [ {
        "text": "KRAS"
      } ]
    },
    "request": {
      "method": "PUT",
      "url": "Observation/7a68d8b2b6218a2b7308f67d87130d03faeec17cc979952a7ae18b5b3117973c"
    }
  }, {
    "fullUrl": "Observation/2725edd36b8625a063c41b4cc0e47c3932a3a11925037fcf953424cf7636de71",
    "resource": {
      "resourceType": "Observation",
      "id": "2725edd36b8625a063c41b4cc0e47c3932a3a11925037fcf953424cf7636de71",
      "meta": {
        "profile": [ "https://www.medizininformatik-initiative.de/fhir/ext/modul-onko/StructureDefinition/mii-pr-onko-genetische-variante" ]
      },
      "identifier": [ {
        "system": "https://bzkf.github.io/obds-to-fhir/identifiers/genetische-variante-id",
        "value": "GenetischeAusprägung-PathologiePAT_701031"
      } ],
      "status": "final",
      "category": [ {
        "coding": [ {
          "system": "http://terminology.hl7.org/CodeSystem/observation-category",
          "code": "laboratory",
          "display": "Laboratory"
        } ]
      } ],
      "code": {
        "coding": [ {
          "system": "http://loinc.org",
          "version": "2.80",
          "code": "69548-6",
          "display": "Genetic variant assessment"
        } ]
      },
      "subject": {
        "reference": "Patient/17fd07c897c1b71242be625380c0f570dd1262c3e8e6716c09819705494d65b5"
      },
      "focus": [ {
        "reference": "Condition/4e6fc5b57a9068af3c8e475b67ae0b573d144421ede0955776d7a991ba4e91f5"
      } ],
      "effectiveDateTime": "2020-01-13",
      "interpretation": [ {
        "coding": [ {
          "system": "https://www.medizininformatik-initiative.de/fhir/ext/modul-onko/CodeSystem/mii-cs-onko-genetische-variante-auspraegung",
          "code": "S"
        } ],
        "text": "foo"
      } ],
      "note": [ {
        "text": "NRAS"
      } ]
    },
    "request": {
      "method": "PUT",
      "url": "Observation/2725edd36b8625a063c41b4cc0e47c3932a3a11925037fcf953424cf7636de71"
    }
  }, {
    "fullUrl": "DiagnosticReport/1f13d00c583d76bc42540fa187e084aed61c9c5e3e432c9962cf2de1790aa1f2",
    "resource": {
      "resourceType": "DiagnosticReport",
      "id": "1f13d00c583d76bc42540fa187e084aed61c9c5e3e432c9962cf2de1790aa1f2",
      "meta": {
        "profile": [ "https://www.medizininformatik-initiative.de/fhir/ext/modul-onko/StructureDefinition/mii-pr-onko-befund" ]
      },
      "identifier": [ {
        "system": "https://bzkf.github.io/obds-to-fhir/identifiers/histologiebefund-diagnostic-report-id",
        "value": "PAT_70103"
      } ],
      "status": "final",
      "code": {
        "coding": [ {
          "system": "http://loinc.org",
          "version": "2.80",
          "code": "22034-3",
          "display": "Pathology report Cancer Narrative"
        } ]
      },
      "subject": {
        "reference": "Patient/17fd07c897c1b71242be625380c0f570dd1262c3e8e6716c09819705494d65b5"
      },
      "conclusion": "Lorem ipsum dolor sit amet, consectetuer adipiscing elit, sed diam nonummy nibh euismod tincidunt ut laoreet dolore magna aliquam erat volutpat. Ut wisi enim ad minim veniam, quis nostrud exercitation ulliam corper suscipit lobortis nisl ut aliquip ex ea commodo consequat. Duis autem veleum iriure dolor in hendrerit in vulputate velit esse molestie consequat, vel willum lunombro dolore eu feugiat nulla facilisis at vero eros et accumsan et iusto odio dignissim qui blandit praesent luptatum zzril delenit augue duis dolore te feugait nulla facilisi."
    },
    "request": {
      "method": "PUT",
      "url": "DiagnosticReport/1f13d00c583d76bc42540fa187e084aed61c9c5e3e432c9962cf2de1790aa1f2"
    }
  }, {
    "fullUrl": "Condition/9f65ba4bd12301996eb41445b4e3b0ec9a38c02207444021ec283cd53280d5b1",
    "resource": {
      "resourceType": "Condition",
      "id": "9f65ba4bd12301996eb41445b4e3b0ec9a38c02207444021ec283cd53280d5b1",
      "meta": {
        "profile": [ "https://www.medizininformatik-initiative.de/fhir/ext/modul-onko/StructureDefinition/mii-pr-onko-diagnose-primaertumor" ],
        "tag": [ {
          "system": "http://snomed.info/sct",
          "version": "http://snomed.info/sct/900000000000207008/version/20250501",
          "code": "255599008",
          "display": "Incomplete (qualifier value)"
        } ]
      },
      "extension": [ {
        "url": "https://www.medizininformatik-initiative.de/fhir/ext/modul-onko/StructureDefinition/mii-ex-onko-histology-morphology-behavior-icdo3",
        "valueCodeableConcept": {
          "coding": [ {
            "system": "http://terminology.hl7.org/CodeSystem/icd-o-3",
            "version": "33",
            "code": "8720/3"
          } ]
        }
      }, {
        "url": "http://hl7.org/fhir/StructureDefinition/condition-assertedDate",
        "valueDateTime": "2020-01-01"
      } ],
      "identifier": [ {
        "system": "https://bzkf.github.io/obds-to-fhir/identifiers/primaerdiagnose-id",
        "value": "40-403"
      } ],
      "code": {
        "coding": [ {
          "system": "http://fhir.de/CodeSystem/bfarm/icd-10-gm",
          "version": "2020",
          "code": "C43.6"
        } ]
      },
      "bodySite": [ {
        "coding": [ {
          "system": "https://www.medizininformatik-initiative.de/fhir/ext/modul-onko/CodeSystem/mii-cs-onko-seitenlokalisation",
          "code": "L"
        }, {
          "system": "http://snomed.info/sct",
          "version": "http://snomed.info/sct/900000000000207008/version/20250501",
          "code": "7771000",
          "display": "Left (qualifier value)"
        } ]
      } ],
      "subject": {
        "reference": "Patient/17fd07c897c1b71242be625380c0f570dd1262c3e8e6716c09819705494d65b5"
      },
      "recordedDate": "2024-02-16"
    },
    "request": {
      "method": "PUT",
      "url": "Condition/9f65ba4bd12301996eb41445b4e3b0ec9a38c02207444021ec283cd53280d5b1"
    }
  }, {
    "fullUrl": "Specimen/2da3bf8cee3f3f6e68af5f378ca717cee8a896209d3251d791b496651ec422b1",
    "resource": {
      "resourceType": "Specimen",
      "id": "2da3bf8cee3f3f6e68af5f378ca717cee8a896209d3251d791b496651ec422b1",
      "meta": {
        "profile": [ "https://www.medizininformatik-initiative.de/fhir/ext/modul-onko/StructureDefinition/mii-pr-onko-specimen" ]
      },
      "identifier": [ {
        "system": "https://bzkf.github.io/obds-to-fhir/identifiers/specimen-id",
        "value": "270"
      } ],
      "accessionIdentifier": {
        "value": "H000123-22"
      },
      "subject": {
        "reference": "Patient/17fd07c897c1b71242be625380c0f570dd1262c3e8e6716c09819705494d65b5"
      },
      "collection": {
        "collectedDateTime": "2020-01-01"
      }
    },
    "request": {
      "method": "PUT",
      "url": "Specimen/2da3bf8cee3f3f6e68af5f378ca717cee8a896209d3251d791b496651ec422b1"
    }
  }, {
    "fullUrl": "Observation/1ff3a4f8348c3f180d8067b751ae6026352e45d67fea395fec272abd7ef9851a",
    "resource": {
      "resourceType": "Observation",
      "id": "1ff3a4f8348c3f180d8067b751ae6026352e45d67fea395fec272abd7ef9851a",
      "meta": {
        "profile": [ "https://www.medizininformatik-initiative.de/fhir/ext/modul-onko/StructureDefinition/mii-pr-onko-histologie-icdo3" ]
      },
      "identifier": [ {
        "system": "https://bzkf.github.io/obds-to-fhir/identifiers/observation-histologie-id",
        "value": "270-ICDO3-8720/3"
      } ],
      "status": "final",
      "code": {
        "coding": [ {
          "system": "http://loinc.org",
          "version": "2.80",
          "code": "59847-4",
          "display": "Histology and Behavior ICD-O-3 Cancer"
        } ]
      },
      "subject": {
        "reference": "Patient/17fd07c897c1b71242be625380c0f570dd1262c3e8e6716c09819705494d65b5"
      },
      "focus": [ {
        "reference": "Condition/9f65ba4bd12301996eb41445b4e3b0ec9a38c02207444021ec283cd53280d5b1"
      } ],
      "effectiveDateTime": "2020-01-01",
      "valueCodeableConcept": {
        "coding": [ {
          "system": "http://terminology.hl7.org/CodeSystem/icd-o-3",
          "version": "33",
          "code": "8720/3"
        } ],
        "text": "Malignes Melanom o.n.A."
      },
      "specimen": {
        "reference": "Specimen/2da3bf8cee3f3f6e68af5f378ca717cee8a896209d3251d791b496651ec422b1"
      }
    },
    "request": {
      "method": "PUT",
      "url": "Observation/1ff3a4f8348c3f180d8067b751ae6026352e45d67fea395fec272abd7ef9851a"
    }
  }, {
    "fullUrl": "Observation/13eb2e254799582f4989eb8cc69b1f55b7706e8c1bce22d02feac6c1ce313b54",
    "resource": {
      "resourceType": "Observation",
      "id": "13eb2e254799582f4989eb8cc69b1f55b7706e8c1bce22d02feac6c1ce313b54",
      "meta": {
        "profile": [ "https://www.medizininformatik-initiative.de/fhir/ext/modul-onko/StructureDefinition/mii-pr-onko-grading" ]
      },
      "identifier": [ {
        "system": "https://bzkf.github.io/obds-to-fhir/identifiers/grading-observation-id",
        "value": "270-grading"
      } ],
      "status": "final",
      "category": [ {
        "coding": [ {
          "system": "http://terminology.hl7.org/CodeSystem/observation-category",
          "code": "laboratory"
        } ]
      } ],
      "code": {
        "coding": [ {
          "system": "http://loinc.org",
          "version": "2.80",
          "code": "33732-9",
          "display": "Histology grade [Identifier] in Cancer specimen"
        }, {
          "system": "http://snomed.info/sct",
          "version": "http://snomed.info/sct/900000000000207008/version/20250501",
          "code": "371469007",
          "display": "Histologic grade of neoplasm (observable entity)"
        } ]
      },
      "subject": {
        "reference": "Patient/17fd07c897c1b71242be625380c0f570dd1262c3e8e6716c09819705494d65b5"
      },
      "focus": [ {
        "reference": "Condition/9f65ba4bd12301996eb41445b4e3b0ec9a38c02207444021ec283cd53280d5b1"
      } ],
      "effectiveDateTime": "2020-01-01",
      "valueCodeableConcept": {
        "coding": [ {
          "system": "https://www.medizininformatik-initiative.de/fhir/ext/modul-onko/CodeSystem/mii-cs-onko-grading",
          "code": "U"
        } ]
      },
      "specimen": {
        "reference": "Specimen/2da3bf8cee3f3f6e68af5f378ca717cee8a896209d3251d791b496651ec422b1"
      }
    },
    "request": {
      "method": "PUT",
      "url": "Observation/13eb2e254799582f4989eb8cc69b1f55b7706e8c1bce22d02feac6c1ce313b54"
    }
  }, {
    "fullUrl": "DiagnosticReport/0ab8291007f01a691b1499f4ee01ececd2e1cee22737198aeabc408e4afb45bb",
    "resource": {
      "resourceType": "DiagnosticReport",
      "id": "0ab8291007f01a691b1499f4ee01ececd2e1cee22737198aeabc408e4afb45bb",
      "meta": {
        "profile": [ "https://www.medizininformatik-initiative.de/fhir/ext/modul-onko/StructureDefinition/mii-pr-onko-befund" ]
      },
      "identifier": [ {
        "system": "https://bzkf.github.io/obds-to-fhir/identifiers/histologiebefund-diagnostic-report-id",
        "value": "PAT_70104"
      } ],
      "status": "final",
      "code": {
        "coding": [ {
          "system": "http://loinc.org",
          "version": "2.80",
          "code": "22034-3",
          "display": "Pathology report Cancer Narrative"
        } ]
      },
      "subject": {
        "reference": "Patient/17fd07c897c1b71242be625380c0f570dd1262c3e8e6716c09819705494d65b5"
      },
      "specimen": [ {
        "reference": "Specimen/2da3bf8cee3f3f6e68af5f378ca717cee8a896209d3251d791b496651ec422b1"
      } ],
      "conclusion": "Lorem ipsum dolor sit amet, consectetaur adipisicing elit, sed do eiusmod tempor incididunt ut labore et dolore magna aliqua. Ut enim ad minim veniam, quis nostrud exercitation ullamco laboris nisi ut aliquip ex ea commodo consequat. Duis aute irure dolor in reprehenderit in voluptate velit esse cillum dolore eu fugiat nulla pariatur. Excepteur sint occaecat cupidatat non proident, sunt in culpa qui officia deserunt mollit anim id est laborum Et harumd und lookum like Greek to me, dereud facilis est er expedit distinct."
    },
    "request": {
      "method": "PUT",
      "url": "DiagnosticReport/0ab8291007f01a691b1499f4ee01ececd2e1cee22737198aeabc408e4afb45bb"
    }
  } ]
}