{
  "resourceType": "Bundle",
  "id": "23283daf4d699cc4b3e9d01cd4ce1344cd94f9f9769dfd88da68b2b696332d48",
  "type": "transaction",
  "entry": [ {
    "fullUrl": "Patient/23283daf4d699cc4b3e9d01cd4ce1344cd94f9f9769dfd88da68b2b696332d48",
    "resource": {
      "resourceType": "Patient",
      "id": "23283daf4d699cc4b3e9d01cd4ce1344cd94f9f9769dfd88da68b2b696332d48",
      "meta": {
        "profile": [ "https://www.medizininformatik-initiative.de/fhir/core/modul-person/StructureDefinition/PatientPseudonymisiert" ]
      },
      "identifier": [ {
        "type": {
          "coding": [ {
            "system": "http://terminology.hl7.org/CodeSystem/v2-0203",
            "code": "MR",
            "display": "Medical record number"
          }, {
            "system": "http://terminology.hl7.org/CodeSystem/v3-ObservationValue",
            "code": "PSEUDED",
            "display": "pseudonymized"
          } ]
        },
        "system": "https://bzkf.github.io/obds-to-fhir/identifiers/patient-id",
        "value": "80"
      } ],
      "gender": "male",
      "birthDate": "1952-03-05",
      "address": [ {
        "type": "both",
        "postalCode": "90402",
        "_country": {
          "extension": [ {
            "url": "http://hl7.org/fhir/StructureDefinition/data-absent-reason",
            "valueCode": "unknown"
          } ]
        }
      } ]
    },
    "request": {
      "method": "PUT",
      "url": "Patient/23283daf4d699cc4b3e9d01cd4ce1344cd94f9f9769dfd88da68b2b696332d48"
    }
  }, {
    "fullUrl": "Condition/e36f967b5391c0aa1a62a6303672b5415efaf3bfdd0b0be02a0739d43ae0b2dc",
    "resource": {
      "resourceType": "Condition",
      "id": "e36f967b5391c0aa1a62a6303672b5415efaf3bfdd0b0be02a0739d43ae0b2dc",
      "meta": {
        "profile": [ "https://www.medizininformatik-initiative.de/fhir/ext/modul-onko/StructureDefinition/mii-pr-onko-diagnose-primaertumor" ]
      },
      "extension": [ {
        "url": "https://www.medizininformatik-initiative.de/fhir/ext/modul-onko/StructureDefinition/mii-ex-onko-histology-morphology-behavior-icdo3",
        "valueCodeableConcept": {
          "coding": [ {
            "system": "http://terminology.hl7.org/CodeSystem/icd-o-3",
            "version": "31",
            "code": "8140/3"
          } ],
          "text": "Adenokarzinom o.n.A."
        }
      }, {
        "url": "http://hl7.org/fhir/StructureDefinition/condition-assertedDate",
        "valueDateTime": "2020-05-10"
      } ],
      "identifier": [ {
        "system": "https://bzkf.github.io/obds-to-fhir/identifiers/primaerdiagnose-condition-id",
        "value": "80-801"
      } ],
      "verificationStatus": {
        "coding": [ {
          "system": "http://terminology.hl7.org/CodeSystem/condition-ver-status",
          "code": "confirmed"
        }, {
          "system": "https://www.medizininformatik-initiative.de/fhir/ext/modul-onko/CodeSystem/mii-cs-onko-primaertumor-diagnosesicherung",
          "code": "7"
        } ]
      },
      "code": {
        "coding": [ {
          "system": "http://fhir.de/CodeSystem/bfarm/icd-10-gm",
          "version": "2020",
          "code": "C61"
        } ]
      },
      "bodySite": [ {
        "coding": [ {
          "system": "http://terminology.hl7.org/CodeSystem/icd-o-3",
          "version": "33",
          "code": "C61.9"
        } ],
        "text": "Prostata o.n.A."
      }, {
        "coding": [ {
          "system": "https://www.medizininformatik-initiative.de/fhir/ext/modul-onko/CodeSystem/mii-cs-onko-seitenlokalisation",
          "code": "T"
        }, {
          "system": "http://snomed.info/sct",
          "version": "http://snomed.info/sct/900000000000207008/version/20250501",
          "code": "385432009",
          "display": "Not applicable (qualifier value)"
        } ]
      } ],
      "subject": {
        "reference": "Patient/23283daf4d699cc4b3e9d01cd4ce1344cd94f9f9769dfd88da68b2b696332d48"
      },
      "recordedDate": "2024-02-16",
      "evidence": [ {
        "detail": [ {
          "reference": "List/99fb24f238619107b2e1605fd6904aec3efe377942af57c5261068556b666e92"
        } ]
      } ]
    },
    "request": {
      "method": "PUT",
      "url": "Condition/e36f967b5391c0aa1a62a6303672b5415efaf3bfdd0b0be02a0739d43ae0b2dc"
    }
  }, {
    "fullUrl": "Procedure/8659f4d846974b09913924a61cb54295e498ab8d1ea36861883c13c3b291c6c1",
    "resource": {
      "resourceType": "Procedure",
      "id": "8659f4d846974b09913924a61cb54295e498ab8d1ea36861883c13c3b291c6c1",
      "meta": {
        "profile": [ "https://www.medizininformatik-initiative.de/fhir/ext/modul-onko/StructureDefinition/mii-pr-onko-strahlentherapie" ]
      },
      "extension": [ {
        "url": "https://www.medizininformatik-initiative.de/fhir/ext/modul-onko/StructureDefinition/mii-ex-onko-strahlentherapie-intention",
        "valueCodeableConcept": {
          "coding": [ {
            "system": "https://www.medizininformatik-initiative.de/fhir/ext/modul-onko/CodeSystem/mii-cs-onko-intention",
            "code": "K"
          } ]
        }
      }, {
        "url": "https://www.medizininformatik-initiative.de/fhir/ext/modul-onko/StructureDefinition/mii-ex-onko-strahlentherapie-stellungzurop",
        "valueCodeableConcept": {
          "coding": [ {
            "system": "https://www.medizininformatik-initiative.de/fhir/ext/modul-onko/CodeSystem/mii-cs-therapie-stellungzurop",
            "code": "A"
          } ]
        }
      } ],
      "identifier": [ {
        "system": "https://bzkf.github.io/obds-to-fhir/identifiers/strahlentherapie-procedure-id",
        "value": "80_1_RAD_1"
      } ],
      "status": "in-progress",
      "category": {
        "coding": [ {
          "system": "http://snomed.info/sct",
          "version": "http://snomed.info/sct/900000000000207008/version/20250501",
          "code": "1287742003",
          "display": "Radiotherapy (procedure)"
        } ]
      },
      "code": {
        "coding": [ {
          "system": "http://fhir.de/CodeSystem/bfarm/ops",
          "version": "2025",
          "code": "8-52",
          "display": "Strahlentherapie"
        } ]
      },
      "subject": {
        "reference": "Patient/23283daf4d699cc4b3e9d01cd4ce1344cd94f9f9769dfd88da68b2b696332d48"
      },
      "performedPeriod": {
        "start": "2020-07-06"
      },
      "reasonReference": [ {
        "reference": "Condition/e36f967b5391c0aa1a62a6303672b5415efaf3bfdd0b0be02a0739d43ae0b2dc"
      } ]
    },
    "request": {
      "method": "PUT",
      "url": "Procedure/8659f4d846974b09913924a61cb54295e498ab8d1ea36861883c13c3b291c6c1"
    }
  }, {
    "fullUrl": "Procedure/27b9cde5682e300a4e3be097c67052f208ed8bff7dbfbf7e11010dd4d18cbe6a",
    "resource": {
      "resourceType": "Procedure",
      "id": "27b9cde5682e300a4e3be097c67052f208ed8bff7dbfbf7e11010dd4d18cbe6a",
      "meta": {
        "profile": [ "https://www.medizininformatik-initiative.de/fhir/ext/modul-onko/StructureDefinition/mii-pr-onko-strahlentherapie-bestrahlung-strahlentherapie" ]
      },
      "identifier": [ {
        "system": "https://bzkf.github.io/obds-to-fhir/identifiers/strahlentherapie-bestrahlung-procedure-id",
        "value": "80_1_RAD_1-0"
      } ],
      "partOf": [ {
        "reference": "Procedure/8659f4d846974b09913924a61cb54295e498ab8d1ea36861883c13c3b291c6c1"
      } ],
      "status": "in-progress",
      "category": {
        "coding": [ {
          "system": "http://snomed.info/sct",
          "version": "http://snomed.info/sct/900000000000207008/version/20250501",
          "code": "1287742003",
          "display": "Radiotherapy (procedure)"
        } ]
      },
      "code": {
        "coding": [ {
          "system": "http://fhir.de/CodeSystem/bfarm/ops",
          "version": "2025",
          "code": "8-52",
          "display": "Strahlentherapie"
        } ]
      },
      "subject": {
        "reference": "Patient/23283daf4d699cc4b3e9d01cd4ce1344cd94f9f9769dfd88da68b2b696332d48"
      },
      "performedPeriod": {
        "start": "2020-07-06"
      },
      "bodySite": [ {
        "extension": [ {
          "url": "https://www.medizininformatik-initiative.de/fhir/ext/modul-onko/StructureDefinition/mii-ex-onko-strahlentherapie-bestrahlung-seitenlokalisation",
          "valueCodeableConcept": {
            "coding": [ {
              "system": "https://www.medizininformatik-initiative.de/fhir/ext/modul-onko/CodeSystem/mii-cs-onko-seitenlokalisation",
              "code": "T"
            } ]
          }
        } ],
        "coding": [ {
          "system": "https://www.medizininformatik-initiative.de/fhir/ext/modul-onko/CodeSystem/mii-cs-onko-strahlentherapie-zielgebiet",
          "code": "5.4"
        } ]
      } ],
      "usedCode": [ {
        "coding": [ {
          "system": "https://www.medizininformatik-initiative.de/fhir/ext/modul-onko/CodeSystem/mii-cs-onko-strahlentherapie-applikationsart",
          "code": "PRCN"
        } ]
      } ]
    },
    "request": {
      "method": "PUT",
      "url": "Procedure/27b9cde5682e300a4e3be097c67052f208ed8bff7dbfbf7e11010dd4d18cbe6a"
    }
  }, {
    "fullUrl": "Procedure/fdc760a36dcc078070986f5fa36465ee167e085a2f2e5accd17cf432cf5b266c",
    "resource": {
      "resourceType": "Procedure",
      "id": "fdc760a36dcc078070986f5fa36465ee167e085a2f2e5accd17cf432cf5b266c",
      "meta": {
        "profile": [ "https://www.medizininformatik-initiative.de/fhir/ext/modul-onko/StructureDefinition/mii-pr-onko-strahlentherapie-bestrahlung-strahlentherapie" ]
      },
      "identifier": [ {
        "system": "https://bzkf.github.io/obds-to-fhir/identifiers/strahlentherapie-bestrahlung-procedure-id",
        "value": "80_1_RAD_1-1"
      } ],
      "partOf": [ {
        "reference": "Procedure/8659f4d846974b09913924a61cb54295e498ab8d1ea36861883c13c3b291c6c1"
      } ],
      "status": "in-progress",
      "category": {
        "coding": [ {
          "system": "http://snomed.info/sct",
          "version": "http://snomed.info/sct/900000000000207008/version/20250501",
          "code": "1287742003",
          "display": "Radiotherapy (procedure)"
        } ]
      },
      "code": {
        "coding": [ {
          "system": "http://fhir.de/CodeSystem/bfarm/ops",
          "version": "2025",
          "code": "8-52",
          "display": "Strahlentherapie"
        } ]
      },
      "subject": {
        "reference": "Patient/23283daf4d699cc4b3e9d01cd4ce1344cd94f9f9769dfd88da68b2b696332d48"
      },
      "performedPeriod": {
        "start": "2020-07-06"
      },
      "bodySite": [ {
        "extension": [ {
          "url": "https://www.medizininformatik-initiative.de/fhir/ext/modul-onko/StructureDefinition/mii-ex-onko-strahlentherapie-bestrahlung-seitenlokalisation",
          "valueCodeableConcept": {
            "coding": [ {
              "system": "https://www.medizininformatik-initiative.de/fhir/ext/modul-onko/CodeSystem/mii-cs-onko-seitenlokalisation",
              "code": "B"
            } ]
          }
        } ],
        "coding": [ {
          "system": "https://www.medizininformatik-initiative.de/fhir/ext/modul-onko/CodeSystem/mii-cs-onko-strahlentherapie-zielgebiet",
          "code": "9.10"
        } ]
      } ],
      "usedCode": [ {
        "coding": [ {
          "system": "https://www.medizininformatik-initiative.de/fhir/ext/modul-onko/CodeSystem/mii-cs-onko-strahlentherapie-applikationsart",
          "code": "PRCN"
        } ]
      } ]
    },
    "request": {
      "method": "PUT",
      "url": "Procedure/fdc760a36dcc078070986f5fa36465ee167e085a2f2e5accd17cf432cf5b266c"
    }
  }, {
    "fullUrl": "AdverseEvent/4fee9db69e213bb816b4dfd0aa49b450922fe8b0c9f771d12413702c6f1ff762",
    "resource": {
      "resourceType": "AdverseEvent",
      "id": "4fee9db69e213bb816b4dfd0aa49b450922fe8b0c9f771d12413702c6f1ff762",
      "meta": {
        "profile": [ "https://www.medizininformatik-initiative.de/fhir/ext/modul-onko/StructureDefinition/mii-pr-onko-nebenwirkung-adverse-event" ]
      },
      "identifier": {
        "system": "https://bzkf.github.io/obds-to-fhir/identifiers/nebenwirkung-adverse-event-id",
        "value": "mii-pr-onko-nebenwirkung-80_1_RAD_1-Grad-maximal-2-unbekannt"
      },
      "actuality": "actual",
      "event": {
        "extension": [ {
          "url": "http://hl7.org/fhir/StructureDefinition/data-absent-reason",
          "valueCode": "not-applicable"
        } ]
      },
      "subject": {
        "reference": "Patient/23283daf4d699cc4b3e9d01cd4ce1344cd94f9f9769dfd88da68b2b696332d48"
      },
      "seriousness": {
        "coding": [ {
          "system": "https://www.medizininformatik-initiative.de/fhir/ext/modul-onko/CodeSystem/mii-cs-onko-nebenwirkung-ctcae-grad",
          "code": "U"
        } ]
      },
      "suspectEntity": [ {
        "instance": {
          "reference": "Procedure/8659f4d846974b09913924a61cb54295e498ab8d1ea36861883c13c3b291c6c1"
        }
      } ]
    },
    "request": {
      "method": "PUT",
      "url": "AdverseEvent/4fee9db69e213bb816b4dfd0aa49b450922fe8b0c9f771d12413702c6f1ff762"
    }
  }, {
    "fullUrl": "Procedure/177d21a6e24969e5a639921f0688163978547b64fd65195940969b759984b142",
    "resource": {
      "resourceType": "Procedure",
      "id": "177d21a6e24969e5a639921f0688163978547b64fd65195940969b759984b142",
      "meta": {
        "profile": [ "https://www.medizininformatik-initiative.de/fhir/ext/modul-onko/StructureDefinition/mii-pr-onko-systemische-therapie" ]
      },
      "extension": [ {
        "url": "https://www.medizininformatik-initiative.de/fhir/ext/modul-onko/StructureDefinition/mii-ex-onko-systemische-therapie-intention",
        "valueCodeableConcept": {
          "coding": [ {
            "system": "https://www.medizininformatik-initiative.de/fhir/ext/modul-onko/CodeSystem/mii-cs-onko-intention",
            "code": "K"
          } ]
        }
      }, {
        "url": "https://www.medizininformatik-initiative.de/fhir/ext/modul-onko/StructureDefinition/mii-ex-onko-strahlentherapie-stellungzurop",
        "valueCodeableConcept": {
          "coding": [ {
            "system": "https://www.medizininformatik-initiative.de/fhir/ext/modul-onko/CodeSystem/mii-cs-therapie-stellungzurop",
            "code": "A"
          } ]
        }
      } ],
      "identifier": [ {
        "system": "https://bzkf.github.io/obds-to-fhir/identifiers/systemische-therapie-procedure-id",
        "value": "80_1_IN_1"
      } ],
      "status": "in-progress",
      "category": {
        "coding": [ {
          "system": "http://snomed.info/sct",
          "version": "http://snomed.info/sct/900000000000207008/version/20250501",
          "code": "18629005",
          "display": "Administration of drug or medicament (procedure)"
        } ]
      },
      "code": {
        "coding": [ {
          "system": "http://fhir.de/CodeSystem/bfarm/ops",
          "version": "2025",
          "code": "6-00",
          "display": "Applikation von Medikamenten"
        }, {
          "system": "https://www.medizininformatik-initiative.de/fhir/ext/modul-onko/CodeSystem/mii-cs-onko-therapie-typ",
          "code": "HO"
        } ],
        "text": "Hormontherapie Buserelin"
      },
      "subject": {
        "reference": "Patient/23283daf4d699cc4b3e9d01cd4ce1344cd94f9f9769dfd88da68b2b696332d48"
      },
      "performedPeriod": {
        "start": "2020-05-10"
      }
    },
    "request": {
      "method": "PUT",
      "url": "Procedure/177d21a6e24969e5a639921f0688163978547b64fd65195940969b759984b142"
    }
  }, {
    "fullUrl": "MedicationStatement/103717960f444378eb534de13fb041476a2fbb6bc30dd8170ae346a65e700aec",
    "resource": {
      "resourceType": "MedicationStatement",
      "id": "103717960f444378eb534de13fb041476a2fbb6bc30dd8170ae346a65e700aec",
      "meta": {
        "profile": [ "https://www.medizininformatik-initiative.de/fhir/ext/modul-onko/StructureDefinition/mii-pr-onko-systemische-therapie-medikation" ]
      },
      "identifier": [ {
        "system": "https://bzkf.github.io/obds-to-fhir/identifiers/systemische-therapie-medication-statement-id",
        "value": "80_1_IN_1-Buserelin_b426"
      } ],
      "partOf": [ {
        "reference": "Procedure/177d21a6e24969e5a639921f0688163978547b64fd65195940969b759984b142"
      } ],
      "status": "active",
      "medicationCodeableConcept": {
        "text": "Buserelin"
      },
      "subject": {
        "reference": "Patient/23283daf4d699cc4b3e9d01cd4ce1344cd94f9f9769dfd88da68b2b696332d48"
      },
      "effectivePeriod": {
        "start": "2020-05-10"
      }
    },
    "request": {
      "method": "PUT",
      "url": "MedicationStatement/103717960f444378eb534de13fb041476a2fbb6bc30dd8170ae346a65e700aec"
    }
  }, {
    "fullUrl": "AdverseEvent/076316e44da8abdb6ae031d4bf8c8a08c374edb81505a545c7575e4a8bc2baf0",
    "resource": {
      "resourceType": "AdverseEvent",
      "id": "076316e44da8abdb6ae031d4bf8c8a08c374edb81505a545c7575e4a8bc2baf0",
      "meta": {
        "profile": [ "https://www.medizininformatik-initiative.de/fhir/ext/modul-onko/StructureDefinition/mii-pr-onko-nebenwirkung-adverse-event" ]
      },
      "identifier": {
        "system": "https://bzkf.github.io/obds-to-fhir/identifiers/nebenwirkung-adverse-event-id",
        "value": "mii-pr-onko-nebenwirkung-80_1_IN_1-Grad-maximal-2-unbekannt"
      },
      "actuality": "actual",
      "event": {
        "extension": [ {
          "url": "http://hl7.org/fhir/StructureDefinition/data-absent-reason",
          "valueCode": "not-applicable"
        } ]
      },
      "subject": {
        "reference": "Patient/23283daf4d699cc4b3e9d01cd4ce1344cd94f9f9769dfd88da68b2b696332d48"
      },
      "seriousness": {
        "coding": [ {
          "system": "https://www.medizininformatik-initiative.de/fhir/ext/modul-onko/CodeSystem/mii-cs-onko-nebenwirkung-ctcae-grad",
          "code": "U"
        } ]
      },
      "suspectEntity": [ {
        "instance": {
          "reference": "Procedure/177d21a6e24969e5a639921f0688163978547b64fd65195940969b759984b142"
        }
      } ]
    },
    "request": {
      "method": "PUT",
      "url": "AdverseEvent/076316e44da8abdb6ae031d4bf8c8a08c374edb81505a545c7575e4a8bc2baf0"
    }
  }, {
    "fullUrl": "CarePlan/81f483e9ec889c09e5736720c1fe174e078d2dd60b2503e28149866e432eea98",
    "resource": {
      "resourceType": "CarePlan",
      "id": "81f483e9ec889c09e5736720c1fe174e078d2dd60b2503e28149866e432eea98",
      "meta": {
        "profile": [ "https://www.medizininformatik-initiative.de/fhir/ext/modul-onko/StructureDefinition/mii-pr-onko-tumorkonferenz" ]
      },
      "identifier": [ {
        "system": "https://bzkf.github.io/obds-to-fhir/identifiers/tumorkonferenz-care-plan-id",
        "value": "Tumorkonferenz-112"
      } ],
      "status": "active",
      "intent": "plan",
      "category": [ {
        "coding": [ {
          "system": "https://www.medizininformatik-initiative.de/fhir/ext/modul-onko/CodeSystem/mii-cs-onko-therapieplanung-typ",
          "code": "praeth"
        } ]
      } ],
      "subject": {
        "reference": "Patient/23283daf4d699cc4b3e9d01cd4ce1344cd94f9f9769dfd88da68b2b696332d48"
      },
      "created": "2020-05-25",
      "addresses": [ {
        "reference": "Condition/e36f967b5391c0aa1a62a6303672b5415efaf3bfdd0b0be02a0739d43ae0b2dc"
      } ],
      "activity": [ {
        "detail": {
          "code": {
            "coding": [ {
              "system": "https://www.medizininformatik-initiative.de/fhir/ext/modul-onko/CodeSystem/mii-cs-onko-therapie-typ",
              "code": "OP"
            } ]
          },
          "status": "unknown",
          "statusReason": {
            "coding": [ {
              "system": "https://www.medizininformatik-initiative.de/fhir/ext/modul-onko/CodeSystem/mii-cs-onko-therapieabweichung",
              "code": "U"
            } ]
          }
        }
      }, {
        "detail": {
          "code": {
            "coding": [ {
              "system": "https://www.medizininformatik-initiative.de/fhir/ext/modul-onko/CodeSystem/mii-cs-onko-therapie-typ",
              "code": "ST"
            } ]
          },
          "status": "unknown",
          "statusReason": {
            "coding": [ {
              "system": "https://www.medizininformatik-initiative.de/fhir/ext/modul-onko/CodeSystem/mii-cs-onko-therapieabweichung",
              "code": "U"
            } ]
          }
        }
      } ]
    },
    "request": {
      "method": "PUT",
      "url": "CarePlan/81f483e9ec889c09e5736720c1fe174e078d2dd60b2503e28149866e432eea98"
    }
  }, {
    "fullUrl": "Procedure/4226087905f6057b9b71e30b1c5035fbb7a3dc43aab842605f2616611f690e3d",
    "resource": {
      "resourceType": "Procedure",
      "id": "4226087905f6057b9b71e30b1c5035fbb7a3dc43aab842605f2616611f690e3d",
      "meta": {
        "profile": [ "https://www.medizininformatik-initiative.de/fhir/ext/modul-onko/StructureDefinition/mii-pr-onko-operation" ]
      },
      "extension": [ {
        "url": "https://www.medizininformatik-initiative.de/fhir/ext/modul-onko/StructureDefinition/mii-ex-onko-operation-intention",
        "valueCodeableConcept": {
          "coding": [ {
            "system": "https://www.medizininformatik-initiative.de/fhir/ext/modul-onko/CodeSystem/mii-cs-onko-intention",
            "code": "K"
          } ]
        }
      } ],
      "identifier": [ {
        "system": "https://bzkf.github.io/obds-to-fhir/identifiers/operation-procedure-id",
        "value": "147-5-604-12"
      } ],
      "status": "completed",
      "category": {
        "coding": [ {
          "system": "http://snomed.info/sct",
          "version": "http://snomed.info/sct/900000000000207008/version/20250501",
          "code": "387713003",
          "display": "Surgical procedure"
        } ]
      },
      "code": {
        "coding": [ {
          "system": "http://fhir.de/CodeSystem/bfarm/ops",
          "version": "2022",
          "code": "5-604.12"
        } ]
      },
      "subject": {
        "reference": "Patient/23283daf4d699cc4b3e9d01cd4ce1344cd94f9f9769dfd88da68b2b696332d48"
      },
      "performedDateTime": "2020-06-01",
      "reasonReference": [ {
        "reference": "Condition/e36f967b5391c0aa1a62a6303672b5415efaf3bfdd0b0be02a0739d43ae0b2dc"
      } ],
      "outcome": {
        "coding": [ {
          "system": "https://www.medizininformatik-initiative.de/fhir/ext/modul-onko/CodeSystem/mii-cs-onko-residualstatus",
          "code": "R0"
        } ]
      }
    },
    "request": {
      "method": "PUT",
      "url": "Procedure/4226087905f6057b9b71e30b1c5035fbb7a3dc43aab842605f2616611f690e3d"
    }
  }, {
    "fullUrl": "Observation/a042c87268385397f8c5fcb146773ffdaebb26e5accbb5a16823e0c78be0c63f",
    "resource": {
      "resourceType": "Observation",
      "id": "a042c87268385397f8c5fcb146773ffdaebb26e5accbb5a16823e0c78be0c63f",
      "identifier": [ {
        "system": "https://bzkf.github.io/obds-to-fhir/identifiers/residualstatus-observation-id",
        "value": "147"
      } ],
      "status": "final",
      "code": {
        "coding": [ {
          "system": "http://loinc.org",
          "version": "2.80",
          "code": "84892-9",
          "display": "Residual tumor classification [Type] in Cancer specimen"
        } ]
      },
      "subject": {
        "reference": "Patient/23283daf4d699cc4b3e9d01cd4ce1344cd94f9f9769dfd88da68b2b696332d48"
      },
      "focus": [ {
        "reference": "Condition/e36f967b5391c0aa1a62a6303672b5415efaf3bfdd0b0be02a0739d43ae0b2dc"
      } ],
      "effectiveDateTime": "2020-06-01",
      "valueCodeableConcept": {
        "coding": [ {
          "system": "https://www.medizininformatik-initiative.de/fhir/ext/modul-onko/CodeSystem/mii-cs-onko-residualstatus",
          "code": "R0"
        } ]
      }
    },
    "request": {
      "method": "PUT",
      "url": "Observation/a042c87268385397f8c5fcb146773ffdaebb26e5accbb5a16823e0c78be0c63f"
    }
  }, {
    "fullUrl": "Specimen/3f4b5353ca48eb20f58b74421ed6096b53e01f4e735993cc1a2d5df46a49881a",
    "resource": {
      "resourceType": "Specimen",
      "id": "3f4b5353ca48eb20f58b74421ed6096b53e01f4e735993cc1a2d5df46a49881a",
      "meta": {
        "profile": [ "https://www.medizininformatik-initiative.de/fhir/ext/modul-onko/StructureDefinition/mii-pr-onko-specimen" ]
      },
      "identifier": [ {
        "system": "https://bzkf.github.io/obds-to-fhir/identifiers/histologie-specimen-id",
        "value": "274"
      } ],
      "accessionIdentifier": {
        "value": "H16789/2020"
      },
      "subject": {
        "reference": "Patient/23283daf4d699cc4b3e9d01cd4ce1344cd94f9f9769dfd88da68b2b696332d48"
      },
      "collection": {
        "collectedDateTime": "2020-06-01"
      }
    },
    "request": {
      "method": "PUT",
      "url": "Specimen/3f4b5353ca48eb20f58b74421ed6096b53e01f4e735993cc1a2d5df46a49881a"
    }
  }, {
    "fullUrl": "Observation/1d90c66d70a56eddd03e2d2891639ef44367b44b6667acd2e259eef086affd1b",
    "resource": {
      "resourceType": "Observation",
      "id": "1d90c66d70a56eddd03e2d2891639ef44367b44b6667acd2e259eef086affd1b",
      "meta": {
        "profile": [ "https://www.medizininformatik-initiative.de/fhir/ext/modul-onko/StructureDefinition/mii-pr-onko-histologie-icdo3" ]
      },
      "identifier": [ {
        "system": "https://bzkf.github.io/obds-to-fhir/identifiers/verlaufshistologie-observation-id",
        "value": "274-ICDO3-8140-3"
      } ],
      "status": "final",
      "code": {
        "coding": [ {
          "system": "http://loinc.org",
          "version": "2.80",
          "code": "59847-4",
          "display": "Histology and Behavior ICD-O-3 Cancer"
        } ]
      },
      "subject": {
        "reference": "Patient/23283daf4d699cc4b3e9d01cd4ce1344cd94f9f9769dfd88da68b2b696332d48"
      },
      "focus": [ {
        "reference": "Condition/e36f967b5391c0aa1a62a6303672b5415efaf3bfdd0b0be02a0739d43ae0b2dc"
      } ],
      "effectiveDateTime": "2020-06-01",
      "valueCodeableConcept": {
        "coding": [ {
          "system": "http://terminology.hl7.org/CodeSystem/icd-o-3",
          "version": "31",
          "code": "8140/3"
        } ],
        "text": "Adenokarzinom o.n.A."
      },
      "specimen": {
        "reference": "Specimen/3f4b5353ca48eb20f58b74421ed6096b53e01f4e735993cc1a2d5df46a49881a"
      }
    },
    "request": {
      "method": "PUT",
      "url": "Observation/1d90c66d70a56eddd03e2d2891639ef44367b44b6667acd2e259eef086affd1b"
    }
  }, {
    "fullUrl": "Observation/b7cf082240ac3d351f12600867f9ce383fbf1b0d367ed4998b1690095de92f3e",
    "resource": {
      "resourceType": "Observation",
      "id": "b7cf082240ac3d351f12600867f9ce383fbf1b0d367ed4998b1690095de92f3e",
      "meta": {
        "profile": [ "https://www.medizininformatik-initiative.de/fhir/ext/modul-onko/StructureDefinition/mii-pr-onko-grading" ]
      },
      "identifier": [ {
        "system": "https://bzkf.github.io/obds-to-fhir/identifiers/grading-observation-id",
        "value": "274-grading"
      } ],
      "status": "final",
      "category": [ {
        "coding": [ {
          "system": "http://terminology.hl7.org/CodeSystem/observation-category",
          "code": "laboratory"
        } ]
      } ],
      "code": {
        "coding": [ {
          "system": "http://loinc.org",
          "version": "2.80",
          "code": "33732-9",
          "display": "Histology grade [Identifier] in Cancer specimen"
        }, {
          "system": "http://snomed.info/sct",
          "version": "http://snomed.info/sct/900000000000207008/version/20250501",
          "code": "371469007",
          "display": "Histologic grade of neoplasm (observable entity)"
        } ]
      },
      "subject": {
        "reference": "Patient/23283daf4d699cc4b3e9d01cd4ce1344cd94f9f9769dfd88da68b2b696332d48"
      },
      "focus": [ {
        "reference": "Condition/e36f967b5391c0aa1a62a6303672b5415efaf3bfdd0b0be02a0739d43ae0b2dc"
      } ],
      "effectiveDateTime": "2020-06-01",
      "valueCodeableConcept": {
        "coding": [ {
          "system": "https://www.medizininformatik-initiative.de/fhir/ext/modul-onko/CodeSystem/mii-cs-onko-grading",
          "code": "T"
        } ]
      },
      "specimen": {
        "reference": "Specimen/3f4b5353ca48eb20f58b74421ed6096b53e01f4e735993cc1a2d5df46a49881a"
      }
    },
    "request": {
      "method": "PUT",
      "url": "Observation/b7cf082240ac3d351f12600867f9ce383fbf1b0d367ed4998b1690095de92f3e"
    }
  }, {
    "fullUrl": "Observation/85a20f50c33b1d20d3e09e85786b56d07c2d1782425f52a69406c6940fe20080",
    "resource": {
      "resourceType": "Observation",
      "id": "85a20f50c33b1d20d3e09e85786b56d07c2d1782425f52a69406c6940fe20080",
      "meta": {
        "profile": [ "https://www.medizininformatik-initiative.de/fhir/ext/modul-onko/StructureDefinition/mii-pr-onko-anzahl-befallene-lymphknoten" ]
      },
      "identifier": [ {
        "system": "https://bzkf.github.io/obds-to-fhir/identifiers/lymphknotenuntersuchung-observation-id",
        "value": "274-befallen"
      } ],
      "status": "final",
      "category": [ {
        "coding": [ {
          "system": "http://terminology.hl7.org/CodeSystem/observation-category",
          "code": "laboratory"
        } ]
      } ],
      "code": {
        "coding": [ {
          "system": "http://loinc.org",
          "version": "2.80",
          "code": "21893-3"
        }, {
          "system": "http://snomed.info/sct",
          "version": "http://snomed.info/sct/900000000000207008/version/20250501",
          "code": "443527007"
        } ]
      },
      "subject": {
        "reference": "Patient/23283daf4d699cc4b3e9d01cd4ce1344cd94f9f9769dfd88da68b2b696332d48"
      },
      "focus": [ {
        "reference": "Condition/e36f967b5391c0aa1a62a6303672b5415efaf3bfdd0b0be02a0739d43ae0b2dc"
      } ],
      "effectiveDateTime": "2020-06-01",
      "valueQuantity": {
        "value": 3,
        "unit": "#",
        "system": "http://unitsofmeasure.org",
        "code": "1"
      },
      "specimen": {
        "reference": "Specimen/3f4b5353ca48eb20f58b74421ed6096b53e01f4e735993cc1a2d5df46a49881a"
      }
    },
    "request": {
      "method": "PUT",
      "url": "Observation/85a20f50c33b1d20d3e09e85786b56d07c2d1782425f52a69406c6940fe20080"
    }
  }, {
    "fullUrl": "Observation/05dfb80645ea5ee5f6ff34aa5207bccf300090b19ce1e121e4886e69954109ca",
    "resource": {
      "resourceType": "Observation",
      "id": "05dfb80645ea5ee5f6ff34aa5207bccf300090b19ce1e121e4886e69954109ca",
      "meta": {
        "profile": [ "https://www.medizininformatik-initiative.de/fhir/ext/modul-onko/StructureDefinition/mii-pr-onko-anzahl-untersuchte-lymphknoten" ]
      },
      "identifier": [ {
        "system": "https://bzkf.github.io/obds-to-fhir/identifiers/lymphknotenuntersuchung-observation-id",
        "value": "274-untersucht"
      } ],
      "status": "final",
      "category": [ {
        "coding": [ {
          "system": "http://terminology.hl7.org/CodeSystem/observation-category",
          "code": "laboratory"
        } ]
      } ],
      "code": {
        "coding": [ {
          "system": "http://loinc.org",
          "version": "2.80",
          "code": "21894-1"
        }, {
          "system": "http://snomed.info/sct",
          "version": "http://snomed.info/sct/900000000000207008/version/20250501",
          "code": "444025001"
        } ]
      },
      "subject": {
        "reference": "Patient/23283daf4d699cc4b3e9d01cd4ce1344cd94f9f9769dfd88da68b2b696332d48"
      },
      "focus": [ {
        "reference": "Condition/e36f967b5391c0aa1a62a6303672b5415efaf3bfdd0b0be02a0739d43ae0b2dc"
      } ],
      "effectiveDateTime": "2020-06-01",
      "valueQuantity": {
        "value": 10,
        "unit": "#",
        "system": "http://unitsofmeasure.org",
        "code": "1"
      },
      "specimen": {
        "reference": "Specimen/3f4b5353ca48eb20f58b74421ed6096b53e01f4e735993cc1a2d5df46a49881a"
      }
    },
    "request": {
      "method": "PUT",
      "url": "Observation/05dfb80645ea5ee5f6ff34aa5207bccf300090b19ce1e121e4886e69954109ca"
    }
  }, {
    "fullUrl": "Observation/58498d35381386bd49e54dab5c8b7f286fd80e2bfcc88c6616f1f72bfb2d7c56",
    "resource": {
      "resourceType": "Observation",
      "id": "58498d35381386bd49e54dab5c8b7f286fd80e2bfcc88c6616f1f72bfb2d7c56",
      "meta": {
        "profile": [ "https://www.medizininformatik-initiative.de/fhir/ext/modul-onko/StructureDefinition/mii-pr-onko-studienteilnahme" ]
      },
      "identifier": [ {
        "system": "https://bzkf.github.io/obds-to-fhir/identifiers/studienteilnahme-observation-id",
        "value": "OP_80105-Studienteilnahme"
      } ],
      "status": "final",
      "code": {
        "coding": [ {
          "system": "http://snomed.info/sct",
          "version": "http://snomed.info/sct/900000000000207008/version/20250501",
          "code": "709491003",
          "display": "Enrollment in clinical trial (procedure)"
        } ]
      },
      "subject": {
        "reference": "Patient/23283daf4d699cc4b3e9d01cd4ce1344cd94f9f9769dfd88da68b2b696332d48"
      },
      "focus": [ {
        "reference": "Condition/e36f967b5391c0aa1a62a6303672b5415efaf3bfdd0b0be02a0739d43ae0b2dc"
      } ],
      "valueCodeableConcept": {
        "coding": [ {
          "system": "https://www.medizininformatik-initiative.de/fhir/ext/modul-onko/CodeSystem/mii-cs-onko-studienteilnahme",
          "code": "N"
        } ]
      }
    },
    "request": {
      "method": "PUT",
      "url": "Observation/58498d35381386bd49e54dab5c8b7f286fd80e2bfcc88c6616f1f72bfb2d7c56"
    }
  }, {
    "fullUrl": "Observation/1dd6bba75a9fa9108a86a763334e906c945462552000c405452af5bd84381fa8",
    "resource": {
      "resourceType": "Observation",
      "id": "1dd6bba75a9fa9108a86a763334e906c945462552000c405452af5bd84381fa8",
      "meta": {
        "profile": [ "https://www.medizininformatik-initiative.de/fhir/ext/modul-onko/StructureDefinition/mii-pr-onko-tnm-t-kategorie" ]
      },
      "identifier": [ {
        "system": "https://bzkf.github.io/obds-to-fhir/identifiers/tnm-t-kategorie-observation-id",
        "value": "257-T"
      } ],
      "status": "final",
      "code": {
        "extension": [ {
          "url": "https://www.medizininformatik-initiative.de/fhir/ext/modul-onko/StructureDefinition/mii-ex-onko-tnm-cp-praefix",
          "valueCodeableConcept": {
            "coding": [ {
              "system": "https://www.uicc.org/resources/tnm",
              "code": "p"
            } ]
          }
        } ],
        "coding": [ {
          "system": "http://snomed.info/sct",
          "version": "http://snomed.info/sct/900000000000207008/version/20250501",
          "code": "384625004",
          "display": "pT category (observable entity)"
        } ]
      },
      "subject": {
        "reference": "Patient/23283daf4d699cc4b3e9d01cd4ce1344cd94f9f9769dfd88da68b2b696332d48"
      },
      "focus": [ {
        "reference": "Condition/e36f967b5391c0aa1a62a6303672b5415efaf3bfdd0b0be02a0739d43ae0b2dc"
      } ],
      "effectiveDateTime": "2020-06-01",
      "valueCodeableConcept": {
        "coding": [ {
          "system": "https://www.uicc.org/resources/tnm",
          "code": "T2b"
        } ]
      },
      "method": {
        "coding": [ {
          "system": "https://www.medizininformatik-initiative.de/fhir/ext/modul-onko/CodeSystem/mii-cs-onko-tnm-version",
          "code": "8"
        } ]
      }
    },
    "request": {
      "method": "PUT",
      "url": "Observation/1dd6bba75a9fa9108a86a763334e906c945462552000c405452af5bd84381fa8"
    }
  }, {
    "fullUrl": "Observation/d4c5205eeb8082e1b6f12466565411b97c9d5e94e8486258b282ce18de929f4e",
    "resource": {
      "resourceType": "Observation",
      "id": "d4c5205eeb8082e1b6f12466565411b97c9d5e94e8486258b282ce18de929f4e",
      "meta": {
        "profile": [ "https://www.medizininformatik-initiative.de/fhir/ext/modul-onko/StructureDefinition/mii-pr-onko-tnm-n-kategorie" ]
      },
      "identifier": [ {
        "system": "https://bzkf.github.io/obds-to-fhir/identifiers/tnm-n-kategorie-observation-id",
        "value": "257-N"
      } ],
      "status": "final",
      "code": {
        "extension": [ {
          "url": "https://www.medizininformatik-initiative.de/fhir/ext/modul-onko/StructureDefinition/mii-ex-onko-tnm-cp-praefix",
          "valueCodeableConcept": {
            "coding": [ {
              "system": "https://www.uicc.org/resources/tnm",
              "code": "p"
            } ]
          }
        } ],
        "coding": [ {
          "system": "http://snomed.info/sct",
          "version": "http://snomed.info/sct/900000000000207008/version/20250501",
          "code": "371494008",
          "display": "pN category (observable entity)"
        } ]
      },
      "subject": {
        "reference": "Patient/23283daf4d699cc4b3e9d01cd4ce1344cd94f9f9769dfd88da68b2b696332d48"
      },
      "focus": [ {
        "reference": "Condition/e36f967b5391c0aa1a62a6303672b5415efaf3bfdd0b0be02a0739d43ae0b2dc"
      } ],
      "effectiveDateTime": "2020-06-01",
      "valueCodeableConcept": {
        "coding": [ {
          "system": "https://www.uicc.org/resources/tnm",
          "code": "N1"
        } ]
      },
      "method": {
        "coding": [ {
          "system": "https://www.medizininformatik-initiative.de/fhir/ext/modul-onko/CodeSystem/mii-cs-onko-tnm-version",
          "code": "8"
        } ]
      }
    },
    "request": {
      "method": "PUT",
      "url": "Observation/d4c5205eeb8082e1b6f12466565411b97c9d5e94e8486258b282ce18de929f4e"
    }
  }, {
    "fullUrl": "Observation/4f1c3013e8d934cd69eaf0f241edb8de8289a019bc16a6238e8e2ff3130970fb",
    "resource": {
      "resourceType": "Observation",
      "id": "4f1c3013e8d934cd69eaf0f241edb8de8289a019bc16a6238e8e2ff3130970fb",
      "meta": {
        "profile": [ "https://www.medizininformatik-initiative.de/fhir/ext/modul-onko/StructureDefinition/mii-pr-onko-tnm-m-kategorie" ]
      },
      "identifier": [ {
        "system": "https://bzkf.github.io/obds-to-fhir/identifiers/tnm-m-kategorie-observation-id",
        "value": "257-M"
      } ],
      "status": "final",
      "code": {
        "extension": [ {
          "url": "https://www.medizininformatik-initiative.de/fhir/ext/modul-onko/StructureDefinition/mii-ex-onko-tnm-cp-praefix",
          "valueCodeableConcept": {
            "coding": [ {
              "system": "https://www.uicc.org/resources/tnm",
              "code": "c"
            } ]
          }
        } ],
        "coding": [ {
          "system": "http://snomed.info/sct",
          "version": "http://snomed.info/sct/900000000000207008/version/20250501",
          "code": "399387003",
          "display": "cM category (observable entity)"
        } ]
      },
      "subject": {
        "reference": "Patient/23283daf4d699cc4b3e9d01cd4ce1344cd94f9f9769dfd88da68b2b696332d48"
      },
      "focus": [ {
        "reference": "Condition/e36f967b5391c0aa1a62a6303672b5415efaf3bfdd0b0be02a0739d43ae0b2dc"
      } ],
      "effectiveDateTime": "2020-06-01",
      "valueCodeableConcept": {
        "coding": [ {
          "system": "https://www.uicc.org/resources/tnm",
          "code": "M0"
        } ]
      },
      "method": {
        "coding": [ {
          "system": "https://www.medizininformatik-initiative.de/fhir/ext/modul-onko/CodeSystem/mii-cs-onko-tnm-version",
          "code": "8"
        } ]
      }
    },
    "request": {
      "method": "PUT",
      "url": "Observation/4f1c3013e8d934cd69eaf0f241edb8de8289a019bc16a6238e8e2ff3130970fb"
    }
  }, {
    "fullUrl": "Observation/03e3ffbc70bb61a92d19a5d517ac724e3b54028cf42b82bd913ed10e33a51313",
    "resource": {
      "resourceType": "Observation",
      "id": "03e3ffbc70bb61a92d19a5d517ac724e3b54028cf42b82bd913ed10e33a51313",
      "meta": {
        "profile": [ "https://www.medizininformatik-initiative.de/fhir/ext/modul-onko/StructureDefinition/mii-pr-onko-tnm-l-kategorie" ]
      },
      "identifier": [ {
        "system": "https://bzkf.github.io/obds-to-fhir/identifiers/tnm-l-kategorie-observation-id",
        "value": "257-L"
      } ],
      "status": "final",
      "code": {
        "coding": [ {
          "system": "http://snomed.info/sct",
          "version": "http://snomed.info/sct/900000000000207008/version/20250501",
          "code": "395715009"
        } ]
      },
      "subject": {
        "reference": "Patient/23283daf4d699cc4b3e9d01cd4ce1344cd94f9f9769dfd88da68b2b696332d48"
      },
      "focus": [ {
        "reference": "Condition/e36f967b5391c0aa1a62a6303672b5415efaf3bfdd0b0be02a0739d43ae0b2dc"
      } ],
      "effectiveDateTime": "2020-06-01",
      "valueCodeableConcept": {
        "coding": [ {
          "system": "https://www.uicc.org/resources/tnm",
          "code": "L1"
        } ]
      },
      "method": {
        "coding": [ {
          "system": "https://www.medizininformatik-initiative.de/fhir/ext/modul-onko/CodeSystem/mii-cs-onko-tnm-version",
          "code": "8"
        } ]
      }
    },
    "request": {
      "method": "PUT",
      "url": "Observation/03e3ffbc70bb61a92d19a5d517ac724e3b54028cf42b82bd913ed10e33a51313"
    }
  }, {
    "fullUrl": "Observation/4421537354b8a243b1f0d4cfe0f571f005c2b645db342df3df0dc521fa678daf",
    "resource": {
      "resourceType": "Observation",
      "id": "4421537354b8a243b1f0d4cfe0f571f005c2b645db342df3df0dc521fa678daf",
      "meta": {
        "profile": [ "https://www.medizininformatik-initiative.de/fhir/ext/modul-onko/StructureDefinition/mii-pr-onko-tnm-pn-kategorie" ]
      },
      "identifier": [ {
        "system": "https://bzkf.github.io/obds-to-fhir/identifiers/tnm-pn-kategorie-observation-id",
        "value": "257-Pn"
      } ],
      "status": "final",
      "code": {
        "coding": [ {
          "system": "http://snomed.info/sct",
          "version": "http://snomed.info/sct/900000000000207008/version/20250501",
          "code": "371513001"
        } ]
      },
      "subject": {
        "reference": "Patient/23283daf4d699cc4b3e9d01cd4ce1344cd94f9f9769dfd88da68b2b696332d48"
      },
      "focus": [ {
        "reference": "Condition/e36f967b5391c0aa1a62a6303672b5415efaf3bfdd0b0be02a0739d43ae0b2dc"
      } ],
      "effectiveDateTime": "2020-06-01",
      "valueCodeableConcept": {
        "coding": [ {
          "system": "https://www.uicc.org/resources/tnm",
          "code": "Pn1"
        } ]
      },
      "method": {
        "coding": [ {
          "system": "https://www.medizininformatik-initiative.de/fhir/ext/modul-onko/CodeSystem/mii-cs-onko-tnm-version",
          "code": "8"
        } ]
      }
    },
    "request": {
      "method": "PUT",
      "url": "Observation/4421537354b8a243b1f0d4cfe0f571f005c2b645db342df3df0dc521fa678daf"
    }
  }, {
    "fullUrl": "Observation/6dc9f1e0b3f413b1a837bf2080ae2ed008384b24543f34eb5425300e3c1c6ff3",
    "resource": {
      "resourceType": "Observation",
      "id": "6dc9f1e0b3f413b1a837bf2080ae2ed008384b24543f34eb5425300e3c1c6ff3",
      "meta": {
        "profile": [ "https://www.medizininformatik-initiative.de/fhir/ext/modul-onko/StructureDefinition/mii-pr-onko-tnm-v-kategorie" ]
      },
      "identifier": [ {
        "system": "https://bzkf.github.io/obds-to-fhir/identifiers/tnm-v-kategorie-observation-id",
        "value": "257-V"
      } ],
      "status": "final",
      "code": {
        "coding": [ {
          "system": "http://snomed.info/sct",
          "version": "http://snomed.info/sct/900000000000207008/version/20250501",
          "code": "371493002"
        } ]
      },
      "subject": {
        "reference": "Patient/23283daf4d699cc4b3e9d01cd4ce1344cd94f9f9769dfd88da68b2b696332d48"
      },
      "focus": [ {
        "reference": "Condition/e36f967b5391c0aa1a62a6303672b5415efaf3bfdd0b0be02a0739d43ae0b2dc"
      } ],
      "effectiveDateTime": "2020-06-01",
      "valueCodeableConcept": {
        "coding": [ {
          "system": "https://www.uicc.org/resources/tnm",
          "code": "V0"
        } ]
      },
      "method": {
        "coding": [ {
          "system": "https://www.medizininformatik-initiative.de/fhir/ext/modul-onko/CodeSystem/mii-cs-onko-tnm-version",
          "code": "8"
        } ]
      }
    },
    "request": {
      "method": "PUT",
      "url": "Observation/6dc9f1e0b3f413b1a837bf2080ae2ed008384b24543f34eb5425300e3c1c6ff3"
    }
  }, {
    "fullUrl": "Observation/c2c37787be75fee5766d1338c04e79c8d11620bdbf889ea83e6386d4a7580c51",
    "resource": {
      "resourceType": "Observation",
      "id": "c2c37787be75fee5766d1338c04e79c8d11620bdbf889ea83e6386d4a7580c51",
      "meta": {
        "profile": [ "https://www.medizininformatik-initiative.de/fhir/ext/modul-onko/StructureDefinition/mii-pr-onko-tnm-klassifikation" ]
      },
      "identifier": [ {
        "system": "https://bzkf.github.io/obds-to-fhir/identifiers/tnm-grouping-observation-id",
        "value": "257"
      } ],
      "status": "final",
      "code": {
        "coding": [ {
          "system": "http://snomed.info/sct",
          "version": "http://snomed.info/sct/900000000000207008/version/20250501",
          "code": "399390009",
          "display": "TNM stage grouping"
        } ]
      },
      "subject": {
        "reference": "Patient/23283daf4d699cc4b3e9d01cd4ce1344cd94f9f9769dfd88da68b2b696332d48"
      },
      "focus": [ {
        "reference": "Condition/e36f967b5391c0aa1a62a6303672b5415efaf3bfdd0b0be02a0739d43ae0b2dc"
      } ],
      "effectiveDateTime": "2020-06-01",
      "valueCodeableConcept": {
        "coding": [ {
          "system": "https://www.uicc.org/resources/tnm",
          "code": "IV",
          "display": "Stadium IV"
        } ]
      },
      "method": {
        "coding": [ {
          "system": "https://www.medizininformatik-initiative.de/fhir/ext/modul-onko/CodeSystem/mii-cs-onko-tnm-version",
          "code": "8"
        } ]
      },
      "hasMember": [ {
        "reference": "Observation/1dd6bba75a9fa9108a86a763334e906c945462552000c405452af5bd84381fa8"
      }, {
        "reference": "Observation/d4c5205eeb8082e1b6f12466565411b97c9d5e94e8486258b282ce18de929f4e"
      }, {
        "reference": "Observation/4f1c3013e8d934cd69eaf0f241edb8de8289a019bc16a6238e8e2ff3130970fb"
      }, {
        "reference": "Observation/03e3ffbc70bb61a92d19a5d517ac724e3b54028cf42b82bd913ed10e33a51313"
      }, {
        "reference": "Observation/4421537354b8a243b1f0d4cfe0f571f005c2b645db342df3df0dc521fa678daf"
      }, {
        "reference": "Observation/6dc9f1e0b3f413b1a837bf2080ae2ed008384b24543f34eb5425300e3c1c6ff3"
      } ]
    },
    "request": {
      "method": "PUT",
      "url": "Observation/c2c37787be75fee5766d1338c04e79c8d11620bdbf889ea83e6386d4a7580c51"
    }
  }, {
    "fullUrl": "Observation/36a33df5231dcb1b597e02f82ebad5844bc7b7cea22ba76657d6b74e52e53617",
    "resource": {
      "resourceType": "Observation",
      "id": "36a33df5231dcb1b597e02f82ebad5844bc7b7cea22ba76657d6b74e52e53617",
      "identifier": [ {
        "system": "https://bzkf.github.io/obds-to-fhir/identifiers/gleason-score-observation-id",
        "value": "gleason-score-OP_80105"
      } ],
      "status": "final",
      "code": {
        "coding": [ {
          "system": "http://snomed.info/sct",
          "version": "http://snomed.info/sct/900000000000207008/version/20250501",
          "code": "385377005",
          "display": "Gleason grade finding for prostatic cancer (finding)"
        } ]
      },
      "subject": {
        "reference": "Patient/23283daf4d699cc4b3e9d01cd4ce1344cd94f9f9769dfd88da68b2b696332d48"
      },
      "focus": [ {
        "reference": "Condition/e36f967b5391c0aa1a62a6303672b5415efaf3bfdd0b0be02a0739d43ae0b2dc"
      } ],
      "effectiveDateTime": "2020-06-01",
      "valueCodeableConcept": {
        "coding": [ {
          "extension": [ {
            "url": "http://hl7.org/fhir/StructureDefinition/ordinalValue",
            "valueDecimal": 8
          } ],
          "system": "http://snomed.info/sct",
          "version": "http://snomed.info/sct/900000000000207008/version/20250501",
          "code": "33013007"
        } ],
        "text": "8"
      },
      "method": {
        "coding": [ {
          "system": "http://snomed.info/sct",
          "version": "http://snomed.info/sct/900000000000207008/version/20250501",
          "code": "65801008",
          "display": "Excision (procedure)"
        } ]
      },
      "component": [ {
        "code": {
          "coding": [ {
            "system": "http://snomed.info/sct",
            "version": "http://snomed.info/sct/900000000000207008/version/20250501",
            "code": "384994009",
            "display": "Primary Gleason pattern"
          } ]
        },
        "valueInteger": 4
      }, {
        "code": {
          "coding": [ {
            "system": "http://snomed.info/sct",
            "version": "http://snomed.info/sct/900000000000207008/version/20250501",
            "code": "384995005",
            "display": "Secondary Gleason pattern"
          } ]
        },
        "valueInteger": 4
      } ]
    },
    "request": {
      "method": "PUT",
      "url": "Observation/36a33df5231dcb1b597e02f82ebad5844bc7b7cea22ba76657d6b74e52e53617"
    }
  }, {
    "fullUrl": "Observation/8c90efdf3087fb26b34236ca4112d1a77504877f60b95344591032e332f11c7a",
    "resource": {
      "resourceType": "Observation",
      "id": "8c90efdf3087fb26b34236ca4112d1a77504877f60b95344591032e332f11c7a",
      "meta": {
        "profile": [ "https://www.medizininformatik-initiative.de/fhir/ext/modul-onko/StructureDefinition/mii-pr-onko-verlauf" ]
      },
      "identifier": [ {
        "value": "159"
      } ],
      "status": "final",
      "code": {
        "coding": [ {
          "system": "http://snomed.info/sct",
          "version": "http://snomed.info/sct/900000000000207008/version/20250501",
          "code": "396432002",
          "display": "Status of regression of tumor (observable entity)"
        } ]
      },
      "subject": {
        "reference": "Patient/23283daf4d699cc4b3e9d01cd4ce1344cd94f9f9769dfd88da68b2b696332d48"
      },
      "focus": [ {
        "reference": "Condition/e36f967b5391c0aa1a62a6303672b5415efaf3bfdd0b0be02a0739d43ae0b2dc"
      } ],
      "effectiveDateTime": "2020-10-14",
      "valueCodeableConcept": {
        "coding": [ {
          "system": "https://www.medizininformatik-initiative.de/fhir/ext/modul-onko/CodeSystem/mii-cs-onko-verlauf-gesamtbeurteilung",
          "code": "V",
          "display": "Vollremission"
        } ]
      },
      "component": [ {
        "code": {
          "coding": [ {
            "system": "http://snomed.info/sct",
            "version": "http://snomed.info/sct/900000000000207008/version/20250501",
            "code": "277062004",
            "display": "Status des Residualtumors"
          } ]
        },
        "valueCodeableConcept": {
          "coding": [ {
            "system": "https://www.medizininformatik-initiative.de/fhir/ext/modul-onko/CodeSystem/mii-cs-onko-verlauf-primaertumor",
            "code": "K",
            "display": "kein Tumor nachweisbar"
          } ]
        }
      }, {
        "code": {
          "coding": [ {
            "system": "http://snomed.info/sct",
            "version": "http://snomed.info/sct/900000000000207008/version/20250501",
            "code": "399656008",
            "display": "Status of tumor metastasis to regional lymph nodes (observable entity)"
          } ]
        },
        "valueCodeableConcept": {
          "coding": [ {
            "system": "https://www.medizininformatik-initiative.de/fhir/ext/modul-onko/CodeSystem/mii-cs-onko-verlauf-lymphknoten",
            "code": "K",
            "display": "kein Lymphknotenbefall nachweisbar"
          } ]
        }
      }, {
        "code": {
          "coding": [ {
            "system": "http://snomed.info/sct",
            "version": "http://snomed.info/sct/900000000000207008/version/20250501",
            "code": "399608002",
            "display": "Status of distant metastasis (observable entity)"
          } ]
        },
        "valueCodeableConcept": {
          "coding": [ {
            "system": "https://www.medizininformatik-initiative.de/fhir/ext/modul-onko/CodeSystem/mii-cs-onko-verlauf-fernmetastasen",
            "code": "K",
            "display": "keine Fernmetastasen nachweisbar"
          } ]
        }
      } ]
    },
    "request": {
      "method": "PUT",
      "url": "Observation/8c90efdf3087fb26b34236ca4112d1a77504877f60b95344591032e332f11c7a"
    }
  }, {
    "fullUrl": "Observation/4eccc5f8d8499c776dffe9e481c7582889e29158fe5b8061825c69f9a904d42c",
    "resource": {
      "resourceType": "Observation",
      "id": "4eccc5f8d8499c776dffe9e481c7582889e29158fe5b8061825c69f9a904d42c",
      "meta": {
        "profile": [ "https://www.medizininformatik-initiative.de/fhir/ext/modul-onko/StructureDefinition/mii-pr-onko-allgemeiner-leistungszustand-ecog" ]
      },
      "identifier": [ {
        "system": "https://bzkf.github.io/obds-to-fhir/identifiers/allgemeiner-leistungszustand-ecog-id",
        "value": "ECOG-VER_80107"
      } ],
      "status": "final",
      "code": {
        "coding": [ {
          "system": "http://snomed.info/sct",
          "version": "http://snomed.info/sct/900000000000207008/version/20250501",
          "code": "423740007",
          "display": "Eastern Cooperative Oncology Group performance status (observable entity)"
        } ]
      },
      "subject": {
        "reference": "Patient/23283daf4d699cc4b3e9d01cd4ce1344cd94f9f9769dfd88da68b2b696332d48"
      },
      "focus": [ {
        "reference": "Condition/e36f967b5391c0aa1a62a6303672b5415efaf3bfdd0b0be02a0739d43ae0b2dc"
      } ],
      "effectiveDateTime": "2020-10-14",
      "valueCodeableConcept": {
        "coding": [ {
          "system": "https://www.medizininformatik-initiative.de/fhir/ext/modul-onko/CodeSystem/mii-cs-onko-allgemeiner-leistungszustand-ecog",
          "code": "1",
          "display": "Einschrnkung bei krperlicher Anstrengung, aber gehfhig; leichte krperliche Arbeit bzw. Arbeit im Sitzen (z. B. leichte Hausarbeit oder Broarbeit) mglich (70 - 80 % nach Karnofsky)"
        } ]
      }
    },
    "request": {
      "method": "PUT",
      "url": "Observation/4eccc5f8d8499c776dffe9e481c7582889e29158fe5b8061825c69f9a904d42c"
    }
  }, {
    "fullUrl": "CarePlan/535b3cf6352a96e7e439b0df9f6cdeaf6e35f6ee8119e2d46f076ee455aad9b5",
    "resource": {
      "resourceType": "CarePlan",
      "id": "535b3cf6352a96e7e439b0df9f6cdeaf6e35f6ee8119e2d46f076ee455aad9b5",
      "meta": {
        "profile": [ "https://www.medizininformatik-initiative.de/fhir/ext/modul-onko/StructureDefinition/mii-pr-onko-tumorkonferenz" ]
      },
      "identifier": [ {
        "system": "https://bzkf.github.io/obds-to-fhir/identifiers/tumorkonferenz-care-plan-id",
        "value": "Tumorkonferenz-113"
      } ],
      "status": "completed",
      "intent": "plan",
      "category": [ {
        "coding": [ {
          "system": "https://www.medizininformatik-initiative.de/fhir/ext/modul-onko/CodeSystem/mii-cs-onko-therapieplanung-typ",
          "code": "postop"
        } ]
      } ],
      "subject": {
        "reference": "Patient/23283daf4d699cc4b3e9d01cd4ce1344cd94f9f9769dfd88da68b2b696332d48"
      },
      "created": "2020-06-10",
      "addresses": [ {
        "reference": "Condition/e36f967b5391c0aa1a62a6303672b5415efaf3bfdd0b0be02a0739d43ae0b2dc"
      } ],
      "activity": [ {
        "detail": {
          "code": {
            "coding": [ {
              "system": "https://www.medizininformatik-initiative.de/fhir/ext/modul-onko/CodeSystem/mii-cs-onko-therapie-typ",
              "code": "ST"
            } ]
          },
          "status": "unknown",
          "statusReason": {
            "coding": [ {
              "system": "https://www.medizininformatik-initiative.de/fhir/ext/modul-onko/CodeSystem/mii-cs-onko-therapieabweichung",
              "code": "U"
            } ]
          }
        }
      }, {
        "detail": {
          "code": {
            "coding": [ {
              "system": "https://www.medizininformatik-initiative.de/fhir/ext/modul-onko/CodeSystem/mii-cs-onko-therapie-typ",
              "code": "HO"
            } ]
          },
          "status": "unknown",
          "statusReason": {
            "coding": [ {
              "system": "https://www.medizininformatik-initiative.de/fhir/ext/modul-onko/CodeSystem/mii-cs-onko-therapieabweichung",
              "code": "U"
            } ]
          }
        }
      } ]
    },
    "request": {
      "method": "PUT",
      "url": "CarePlan/535b3cf6352a96e7e439b0df9f6cdeaf6e35f6ee8119e2d46f076ee455aad9b5"
    }
  }, {
    "fullUrl": "Observation/33ffb713694408e707d2cdcc4ce660a637c11a9470ca973e8a62f4354d950d9c",
    "resource": {
      "resourceType": "Observation",
      "id": "33ffb713694408e707d2cdcc4ce660a637c11a9470ca973e8a62f4354d950d9c",
      "meta": {
        "profile": [ "https://www.medizininformatik-initiative.de/fhir/ext/modul-onko/StructureDefinition/mii-pr-onko-allgemeiner-leistungszustand-ecog" ]
      },
      "identifier": [ {
        "system": "https://bzkf.github.io/obds-to-fhir/identifiers/allgemeiner-leistungszustand-ecog-id",
        "value": "ECOG-DIA_80106"
      } ],
      "status": "final",
      "code": {
        "coding": [ {
          "system": "http://snomed.info/sct",
          "version": "http://snomed.info/sct/900000000000207008/version/20250501",
          "code": "423740007",
          "display": "Eastern Cooperative Oncology Group performance status (observable entity)"
        } ]
      },
      "subject": {
        "reference": "Patient/23283daf4d699cc4b3e9d01cd4ce1344cd94f9f9769dfd88da68b2b696332d48"
      },
      "focus": [ {
        "reference": "Condition/e36f967b5391c0aa1a62a6303672b5415efaf3bfdd0b0be02a0739d43ae0b2dc"
      } ],
      "effectiveDateTime": "2020-05-10",
      "valueCodeableConcept": {
        "coding": [ {
          "system": "https://www.medizininformatik-initiative.de/fhir/ext/modul-onko/CodeSystem/mii-cs-onko-allgemeiner-leistungszustand-ecog",
          "code": "0",
          "display": "Normale, uneingeschrnkte Aktivitt wie vor der Erkrankung (90 - 100 % nach Karnofsky)"
        } ]
      }
    },
    "request": {
      "method": "PUT",
      "url": "Observation/33ffb713694408e707d2cdcc4ce660a637c11a9470ca973e8a62f4354d950d9c"
    }
  }, {
    "fullUrl": "Specimen/f6c1695af05f9b43c6e3cb2b5ff6c444873b8ef0d04d7f1836938d04755d1c96",
    "resource": {
      "resourceType": "Specimen",
      "id": "f6c1695af05f9b43c6e3cb2b5ff6c444873b8ef0d04d7f1836938d04755d1c96",
      "meta": {
        "profile": [ "https://www.medizininformatik-initiative.de/fhir/ext/modul-onko/StructureDefinition/mii-pr-onko-specimen" ]
      },
      "identifier": [ {
        "system": "https://bzkf.github.io/obds-to-fhir/identifiers/histologie-specimen-id",
        "value": "275"
      } ],
      "accessionIdentifier": {
        "value": "H14672/2020"
      },
      "subject": {
        "reference": "Patient/23283daf4d699cc4b3e9d01cd4ce1344cd94f9f9769dfd88da68b2b696332d48"
      },
      "collection": {
        "collectedDateTime": "2020-05-10"
      }
    },
    "request": {
      "method": "PUT",
      "url": "Specimen/f6c1695af05f9b43c6e3cb2b5ff6c444873b8ef0d04d7f1836938d04755d1c96"
    }
  }, {
    "fullUrl": "Observation/c5973b2674e2efe25549a9aad0e5e63ac5a1aad18057623dc9670d24c2c5421d",
    "resource": {
      "resourceType": "Observation",
      "id": "c5973b2674e2efe25549a9aad0e5e63ac5a1aad18057623dc9670d24c2c5421d",
      "meta": {
        "profile": [ "https://www.medizininformatik-initiative.de/fhir/ext/modul-onko/StructureDefinition/mii-pr-onko-grading" ]
      },
      "identifier": [ {
        "system": "https://bzkf.github.io/obds-to-fhir/identifiers/grading-observation-id",
        "value": "275-grading"
      } ],
      "status": "final",
      "category": [ {
        "coding": [ {
          "system": "http://terminology.hl7.org/CodeSystem/observation-category",
          "code": "laboratory"
        } ]
      } ],
      "code": {
        "coding": [ {
          "system": "http://loinc.org",
          "version": "2.80",
          "code": "33732-9",
          "display": "Histology grade [Identifier] in Cancer specimen"
        }, {
          "system": "http://snomed.info/sct",
          "version": "http://snomed.info/sct/900000000000207008/version/20250501",
          "code": "371469007",
          "display": "Histologic grade of neoplasm (observable entity)"
        } ]
      },
      "subject": {
        "reference": "Patient/23283daf4d699cc4b3e9d01cd4ce1344cd94f9f9769dfd88da68b2b696332d48"
      },
      "focus": [ {
        "reference": "Condition/e36f967b5391c0aa1a62a6303672b5415efaf3bfdd0b0be02a0739d43ae0b2dc"
      } ],
      "effectiveDateTime": "2020-05-10",
      "valueCodeableConcept": {
        "coding": [ {
          "system": "https://www.medizininformatik-initiative.de/fhir/ext/modul-onko/CodeSystem/mii-cs-onko-grading",
          "code": "T"
        } ]
      },
      "specimen": {
        "reference": "Specimen/f6c1695af05f9b43c6e3cb2b5ff6c444873b8ef0d04d7f1836938d04755d1c96"
      }
    },
    "request": {
      "method": "PUT",
      "url": "Observation/c5973b2674e2efe25549a9aad0e5e63ac5a1aad18057623dc9670d24c2c5421d"
    }
  }, {
    "fullUrl": "Observation/480acc1e1033d5339d6dad87f5e5f88cf43e5043ac42eb749703c8c7759eb713",
    "resource": {
      "resourceType": "Observation",
      "id": "480acc1e1033d5339d6dad87f5e5f88cf43e5043ac42eb749703c8c7759eb713",
      "meta": {
        "profile": [ "https://www.medizininformatik-initiative.de/fhir/ext/modul-onko/StructureDefinition/mii-pr-onko-tnm-t-kategorie" ]
      },
      "identifier": [ {
        "system": "https://bzkf.github.io/obds-to-fhir/identifiers/tnm-t-kategorie-observation-id",
        "value": "258-c-T"
      } ],
      "status": "final",
      "code": {
        "extension": [ {
          "url": "https://www.medizininformatik-initiative.de/fhir/ext/modul-onko/StructureDefinition/mii-ex-onko-tnm-cp-praefix",
          "valueCodeableConcept": {
            "coding": [ {
              "system": "https://www.uicc.org/resources/tnm",
              "code": "c"
            } ]
          }
        } ],
        "coding": [ {
          "system": "http://snomed.info/sct",
          "version": "http://snomed.info/sct/900000000000207008/version/20250501",
          "code": "399504009",
          "display": "cT category (observable entity)"
        } ]
      },
      "subject": {
        "reference": "Patient/23283daf4d699cc4b3e9d01cd4ce1344cd94f9f9769dfd88da68b2b696332d48"
      },
      "focus": [ {
        "reference": "Condition/e36f967b5391c0aa1a62a6303672b5415efaf3bfdd0b0be02a0739d43ae0b2dc"
      } ],
      "effectiveDateTime": "2020-05-10",
      "valueCodeableConcept": {
        "coding": [ {
          "system": "https://www.uicc.org/resources/tnm",
          "code": "T1c"
        } ]
      },
      "method": {
        "coding": [ {
          "system": "https://www.medizininformatik-initiative.de/fhir/ext/modul-onko/CodeSystem/mii-cs-onko-tnm-version",
          "code": "8"
        } ]
      }
    },
    "request": {
      "method": "PUT",
      "url": "Observation/480acc1e1033d5339d6dad87f5e5f88cf43e5043ac42eb749703c8c7759eb713"
    }
  }, {
    "fullUrl": "Observation/3f36ea26f57b45755843d9d854351ac3e73b92b0ce570c3b66e52ef787cd57ca",
    "resource": {
      "resourceType": "Observation",
      "id": "3f36ea26f57b45755843d9d854351ac3e73b92b0ce570c3b66e52ef787cd57ca",
      "meta": {
        "profile": [ "https://www.medizininformatik-initiative.de/fhir/ext/modul-onko/StructureDefinition/mii-pr-onko-tnm-n-kategorie" ]
      },
      "identifier": [ {
        "system": "https://bzkf.github.io/obds-to-fhir/identifiers/tnm-n-kategorie-observation-id",
        "value": "258-c-N"
      } ],
      "status": "final",
      "code": {
        "extension": [ {
          "url": "https://www.medizininformatik-initiative.de/fhir/ext/modul-onko/StructureDefinition/mii-ex-onko-tnm-cp-praefix",
          "valueCodeableConcept": {
            "coding": [ {
              "system": "https://www.uicc.org/resources/tnm",
              "code": "c"
            } ]
          }
        } ],
        "coding": [ {
          "system": "http://snomed.info/sct",
          "version": "http://snomed.info/sct/900000000000207008/version/20250501",
          "code": "399534004",
          "display": "cN category (observable entity)"
        } ]
      },
      "subject": {
        "reference": "Patient/23283daf4d699cc4b3e9d01cd4ce1344cd94f9f9769dfd88da68b2b696332d48"
      },
      "focus": [ {
        "reference": "Condition/e36f967b5391c0aa1a62a6303672b5415efaf3bfdd0b0be02a0739d43ae0b2dc"
      } ],
      "effectiveDateTime": "2020-05-10",
      "valueCodeableConcept": {
        "coding": [ {
          "system": "https://www.uicc.org/resources/tnm",
          "code": "N0"
        } ]
      },
      "method": {
        "coding": [ {
          "system": "https://www.medizininformatik-initiative.de/fhir/ext/modul-onko/CodeSystem/mii-cs-onko-tnm-version",
          "code": "8"
        } ]
      }
    },
    "request": {
      "method": "PUT",
      "url": "Observation/3f36ea26f57b45755843d9d854351ac3e73b92b0ce570c3b66e52ef787cd57ca"
    }
  }, {
    "fullUrl": "Observation/206b4d5dd86c09f12d4758db9bd79613c648526c5a1fcae75c8e4c33cc01a289",
    "resource": {
      "resourceType": "Observation",
      "id": "206b4d5dd86c09f12d4758db9bd79613c648526c5a1fcae75c8e4c33cc01a289",
      "meta": {
        "profile": [ "https://www.medizininformatik-initiative.de/fhir/ext/modul-onko/StructureDefinition/mii-pr-onko-tnm-m-kategorie" ]
      },
      "identifier": [ {
        "system": "https://bzkf.github.io/obds-to-fhir/identifiers/tnm-m-kategorie-observation-id",
        "value": "258-c-M"
      } ],
      "status": "final",
      "code": {
        "extension": [ {
          "url": "https://www.medizininformatik-initiative.de/fhir/ext/modul-onko/StructureDefinition/mii-ex-onko-tnm-cp-praefix",
          "valueCodeableConcept": {
            "coding": [ {
              "system": "https://www.uicc.org/resources/tnm",
              "code": "c"
            } ]
          }
        } ],
        "coding": [ {
          "system": "http://snomed.info/sct",
          "version": "http://snomed.info/sct/900000000000207008/version/20250501",
          "code": "399387003",
          "display": "cM category (observable entity)"
        } ]
      },
      "subject": {
        "reference": "Patient/23283daf4d699cc4b3e9d01cd4ce1344cd94f9f9769dfd88da68b2b696332d48"
      },
      "focus": [ {
        "reference": "Condition/e36f967b5391c0aa1a62a6303672b5415efaf3bfdd0b0be02a0739d43ae0b2dc"
      } ],
      "effectiveDateTime": "2020-05-10",
      "valueCodeableConcept": {
        "coding": [ {
          "system": "https://www.uicc.org/resources/tnm",
          "code": "M0"
        } ]
      },
      "method": {
        "coding": [ {
          "system": "https://www.medizininformatik-initiative.de/fhir/ext/modul-onko/CodeSystem/mii-cs-onko-tnm-version",
          "code": "8"
        } ]
      }
    },
    "request": {
      "method": "PUT",
      "url": "Observation/206b4d5dd86c09f12d4758db9bd79613c648526c5a1fcae75c8e4c33cc01a289"
    }
  }, {
    "fullUrl": "Observation/a8ed843608bcf026b5338a243a6f19da9822892478322502f2912a8f9cf0c2ad",
    "resource": {
      "resourceType": "Observation",
      "id": "a8ed843608bcf026b5338a243a6f19da9822892478322502f2912a8f9cf0c2ad",
      "meta": {
        "profile": [ "https://www.medizininformatik-initiative.de/fhir/ext/modul-onko/StructureDefinition/mii-pr-onko-tnm-klassifikation" ]
      },
      "identifier": [ {
        "system": "https://bzkf.github.io/obds-to-fhir/identifiers/tnm-grouping-observation-id",
        "value": "258-c"
      } ],
      "status": "final",
      "code": {
        "coding": [ {
          "system": "http://snomed.info/sct",
          "version": "http://snomed.info/sct/900000000000207008/version/20250501",
          "code": "399537006",
          "display": "Clinical TNM stage grouping"
        } ]
      },
      "subject": {
        "reference": "Patient/23283daf4d699cc4b3e9d01cd4ce1344cd94f9f9769dfd88da68b2b696332d48"
      },
      "focus": [ {
        "reference": "Condition/e36f967b5391c0aa1a62a6303672b5415efaf3bfdd0b0be02a0739d43ae0b2dc"
      } ],
      "effectiveDateTime": "2020-05-10",
      "valueCodeableConcept": {
        "coding": [ {
          "system": "https://www.uicc.org/resources/tnm",
          "code": "I",
          "display": "Stadium I"
        } ]
      },
      "method": {
        "coding": [ {
          "system": "https://www.medizininformatik-initiative.de/fhir/ext/modul-onko/CodeSystem/mii-cs-onko-tnm-version",
          "code": "8"
        } ]
      },
      "hasMember": [ {
        "reference": "Observation/480acc1e1033d5339d6dad87f5e5f88cf43e5043ac42eb749703c8c7759eb713"
      }, {
        "reference": "Observation/3f36ea26f57b45755843d9d854351ac3e73b92b0ce570c3b66e52ef787cd57ca"
      }, {
        "reference": "Observation/206b4d5dd86c09f12d4758db9bd79613c648526c5a1fcae75c8e4c33cc01a289"
      } ]
    },
    "request": {
      "method": "PUT",
      "url": "Observation/a8ed843608bcf026b5338a243a6f19da9822892478322502f2912a8f9cf0c2ad"
    }
  }, {
    "fullUrl": "Observation/3f871acb564cc3e785d1fdc5c39867fe9de2caf96feb535a0d0ea235b0ba7bc0",
    "resource": {
      "resourceType": "Observation",
      "id": "3f871acb564cc3e785d1fdc5c39867fe9de2caf96feb535a0d0ea235b0ba7bc0",
      "identifier": [ {
        "system": "https://bzkf.github.io/obds-to-fhir/identifiers/gleason-score-observation-id",
        "value": "gleason-score-DIA_80106"
      } ],
      "status": "final",
      "code": {
        "coding": [ {
          "system": "http://snomed.info/sct",
          "version": "http://snomed.info/sct/900000000000207008/version/20250501",
          "code": "385377005",
          "display": "Gleason grade finding for prostatic cancer (finding)"
        } ]
      },
      "subject": {
        "reference": "Patient/23283daf4d699cc4b3e9d01cd4ce1344cd94f9f9769dfd88da68b2b696332d48"
      },
      "focus": [ {
        "reference": "Condition/e36f967b5391c0aa1a62a6303672b5415efaf3bfdd0b0be02a0739d43ae0b2dc"
      } ],
      "effectiveDateTime": "2020-05-10",
      "valueCodeableConcept": {
        "coding": [ {
          "extension": [ {
            "url": "http://hl7.org/fhir/StructureDefinition/ordinalValue",
            "valueDecimal": 7
          } ],
          "system": "http://snomed.info/sct",
          "version": "http://snomed.info/sct/900000000000207008/version/20250501",
          "code": "57403001"
        } ],
        "text": "7b"
      },
      "method": {
        "coding": [ {
          "system": "http://snomed.info/sct",
          "version": "http://snomed.info/sct/900000000000207008/version/20250501",
          "code": "86273004",
          "display": "Biopsy (procedure)"
        } ]
      },
      "component": [ {
        "code": {
          "coding": [ {
            "system": "http://snomed.info/sct",
            "version": "http://snomed.info/sct/900000000000207008/version/20250501",
            "code": "384994009",
            "display": "Primary Gleason pattern"
          } ]
        },
        "valueInteger": 4
      }, {
        "code": {
          "coding": [ {
            "system": "http://snomed.info/sct",
            "version": "http://snomed.info/sct/900000000000207008/version/20250501",
            "code": "384995005",
            "display": "Secondary Gleason pattern"
          } ]
        },
        "valueInteger": 3
      } ]
    },
    "request": {
      "method": "PUT",
      "url": "Observation/3f871acb564cc3e785d1fdc5c39867fe9de2caf96feb535a0d0ea235b0ba7bc0"
    }
  }, {
    "fullUrl": "List/99fb24f238619107b2e1605fd6904aec3efe377942af57c5261068556b666e92",
    "resource": {
      "resourceType": "List",
      "id": "99fb24f238619107b2e1605fd6904aec3efe377942af57c5261068556b666e92",
      "meta": {
        "profile": [ "https://www.medizininformatik-initiative.de/fhir/ext/modul-onko/StructureDefinition/mii-pr-onko-liste-evidenz-erstdiagnose" ]
      },
      "identifier": [ {
        "system": "https://bzkf.github.io/obds-to-fhir/identifiers/erstdiagnose-evidenz-list-id",
        "value": "80-801"
      } ],
      "status": "current",
      "mode": "snapshot",
      "subject": {
        "reference": "Patient/23283daf4d699cc4b3e9d01cd4ce1344cd94f9f9769dfd88da68b2b696332d48"
      },
      "entry": [ {
        "item": {
          "reference": "Observation/33ffb713694408e707d2cdcc4ce660a637c11a9470ca973e8a62f4354d950d9c"
        }
      }, {
        "item": {
          "reference": "Specimen/f6c1695af05f9b43c6e3cb2b5ff6c444873b8ef0d04d7f1836938d04755d1c96"
        }
      }, {
        "item": {
          "reference": "Observation/c5973b2674e2efe25549a9aad0e5e63ac5a1aad18057623dc9670d24c2c5421d"
        }
      }, {
        "item": {
          "reference": "Observation/480acc1e1033d5339d6dad87f5e5f88cf43e5043ac42eb749703c8c7759eb713"
        }
      }, {
        "item": {
          "reference": "Observation/3f36ea26f57b45755843d9d854351ac3e73b92b0ce570c3b66e52ef787cd57ca"
        }
      }, {
        "item": {
          "reference": "Observation/206b4d5dd86c09f12d4758db9bd79613c648526c5a1fcae75c8e4c33cc01a289"
        }
      }, {
        "item": {
          "reference": "Observation/a8ed843608bcf026b5338a243a6f19da9822892478322502f2912a8f9cf0c2ad"
        }
      }, {
        "item": {
          "reference": "Observation/3f871acb564cc3e785d1fdc5c39867fe9de2caf96feb535a0d0ea235b0ba7bc0"
        }
      } ]
    },
    "request": {
      "method": "PUT",
      "url": "List/99fb24f238619107b2e1605fd6904aec3efe377942af57c5261068556b666e92"
    }
  } ]
}