{
  "resourceType": "Bundle",
  "id": "17fd07c897c1b71242be625380c0f570dd1262c3e8e6716c09819705494d65b5",
  "type": "transaction",
  "entry": [ {
    "fullUrl": "Patient/17fd07c897c1b71242be625380c0f570dd1262c3e8e6716c09819705494d65b5",
    "resource": {
      "resourceType": "Patient",
      "id": "17fd07c897c1b71242be625380c0f570dd1262c3e8e6716c09819705494d65b5",
      "meta": {
        "profile": [ "https://www.medizininformatik-initiative.de/fhir/core/modul-person/StructureDefinition/PatientPseudonymisiert" ]
      },
      "identifier": [ {
        "type": {
          "coding": [ {
            "system": "http://terminology.hl7.org/CodeSystem/v2-0203",
            "code": "MR",
            "display": "Medical record number"
          }, {
            "system": "http://terminology.hl7.org/CodeSystem/v3-ObservationValue",
            "code": "PSEUDED",
            "display": "pseudonymized"
          } ]
        },
        "system": "https://bzkf.github.io/obds-to-fhir/identifiers/patient-id",
        "value": "40"
      } ],
      "gender": "female",
      "birthDate": "1980-01-01",
      "address": [ {
        "type": "both",
        "postalCode": "98765",
        "country": "DE"
      } ]
    },
    "request": {
      "method": "PUT",
      "url": "Patient/17fd07c897c1b71242be625380c0f570dd1262c3e8e6716c09819705494d65b5"
    }
  }, {
    "fullUrl": "Condition/4393db103a425cb0cd10bbe605906f715ceac791e2c02e59e73069b9f136cddd",
    "resource": {
      "resourceType": "Condition",
      "id": "4393db103a425cb0cd10bbe605906f715ceac791e2c02e59e73069b9f136cddd",
      "meta": {
        "profile": [ "https://www.medizininformatik-initiative.de/fhir/ext/modul-onko/StructureDefinition/mii-pr-onko-diagnose-primaertumor" ],
        "tag": [ {
          "system": "http://snomed.info/sct",
          "version": "http://snomed.info/sct/900000000000207008/version/20250501",
          "code": "255599008",
          "display": "Incomplete (qualifier value)"
        } ]
      },
      "extension": [ {
        "url": "https://www.medizininformatik-initiative.de/fhir/ext/modul-onko/StructureDefinition/mii-ex-onko-histology-morphology-behavior-icdo3",
        "valueCodeableConcept": {
          "coding": [ {
            "system": "http://terminology.hl7.org/CodeSystem/icd-o-3",
            "version": "33",
            "code": "8500/3"
          } ]
        }
      }, {
        "url": "http://hl7.org/fhir/StructureDefinition/condition-assertedDate",
        "valueDateTime": "2019-10-01"
      } ],
      "identifier": [ {
        "system": "https://bzkf.github.io/obds-to-fhir/identifiers/primaerdiagnose-id",
        "value": "40-401"
      } ],
      "code": {
        "coding": [ {
          "system": "http://fhir.de/CodeSystem/bfarm/icd-10-gm",
          "version": "2019",
          "code": "C50.9"
        } ]
      },
      "bodySite": [ {
        "coding": [ {
          "system": "https://www.medizininformatik-initiative.de/fhir/ext/modul-onko/CodeSystem/mii-cs-onko-seitenlokalisation",
          "code": "R"
        }, {
          "system": "http://snomed.info/sct",
          "version": "http://snomed.info/sct/900000000000207008/version/20250501",
          "code": "24028007",
          "display": "Right (qualifier value)"
        } ]
      } ],
      "subject": {
        "reference": "Patient/17fd07c897c1b71242be625380c0f570dd1262c3e8e6716c09819705494d65b5"
      },
      "recordedDate": "2024-02-16"
    },
    "request": {
      "method": "PUT",
      "url": "Condition/4393db103a425cb0cd10bbe605906f715ceac791e2c02e59e73069b9f136cddd"
    }
  }, {
    "fullUrl": "Specimen/f88f01f8376de7db60d4497121febc5659d9877f9268d25f6ca240fac028dc16",
    "resource": {
      "resourceType": "Specimen",
      "id": "f88f01f8376de7db60d4497121febc5659d9877f9268d25f6ca240fac028dc16",
      "meta": {
        "profile": [ "https://www.medizininformatik-initiative.de/fhir/ext/modul-onko/StructureDefinition/mii-pr-onko-specimen" ]
      },
      "identifier": [ {
        "system": "https://bzkf.github.io/obds-to-fhir/identifiers/specimen-id",
        "value": "269"
      } ],
      "accessionIdentifier": {
        "value": "H000520-22"
      },
      "subject": {
        "reference": "Patient/17fd07c897c1b71242be625380c0f570dd1262c3e8e6716c09819705494d65b5"
      },
      "collection": {
        "collectedDateTime": "2022-08-05"
      }
    },
    "request": {
      "method": "PUT",
      "url": "Specimen/f88f01f8376de7db60d4497121febc5659d9877f9268d25f6ca240fac028dc16"
    }
  }, {
    "fullUrl": "Observation/72589631bd806fa071ac4bfff244866df297096a4ed054865499df5fcb3bef8f",
    "resource": {
      "resourceType": "Observation",
      "id": "72589631bd806fa071ac4bfff244866df297096a4ed054865499df5fcb3bef8f",
      "meta": {
        "profile": [ "https://www.medizininformatik-initiative.de/fhir/ext/modul-onko/StructureDefinition/mii-pr-onko-histologie-icdo3" ]
      },
      "identifier": [ {
        "system": "https://bzkf.github.io/obds-to-fhir/identifiers/observation-histologie-id",
        "value": "269-ICDO3-8500-3"
      } ],
      "status": "final",
      "code": {
        "coding": [ {
          "system": "http://loinc.org",
          "version": "2.80",
          "code": "59847-4",
          "display": "Histology and Behavior ICD-O-3 Cancer"
        } ]
      },
      "subject": {
        "reference": "Patient/17fd07c897c1b71242be625380c0f570dd1262c3e8e6716c09819705494d65b5"
      },
      "focus": [ {
        "reference": "Condition/4393db103a425cb0cd10bbe605906f715ceac791e2c02e59e73069b9f136cddd"
      } ],
      "effectiveDateTime": "2022-08-05",
      "valueCodeableConcept": {
        "coding": [ {
          "system": "http://terminology.hl7.org/CodeSystem/icd-o-3",
          "version": "33",
          "code": "8500/3"
        } ],
        "text": "Invasives duktales Karzinom o.n.A."
      },
      "specimen": {
        "reference": "Specimen/f88f01f8376de7db60d4497121febc5659d9877f9268d25f6ca240fac028dc16"
      }
    },
    "request": {
      "method": "PUT",
      "url": "Observation/72589631bd806fa071ac4bfff244866df297096a4ed054865499df5fcb3bef8f"
    }
  }, {
    "fullUrl": "Observation/6bd43fb23b560d6bc1fe13a1fd769746e09aaee2d305a7c407e88265f197c60c",
    "resource": {
      "resourceType": "Observation",
      "id": "6bd43fb23b560d6bc1fe13a1fd769746e09aaee2d305a7c407e88265f197c60c",
      "meta": {
        "profile": [ "https://www.medizininformatik-initiative.de/fhir/ext/modul-onko/StructureDefinition/mii-pr-onko-grading" ]
      },
      "identifier": [ {
        "system": "https://bzkf.github.io/obds-to-fhir/identifiers/grading-observation-id",
        "value": "269-grading"
      } ],
      "status": "final",
      "category": [ {
        "coding": [ {
          "system": "http://terminology.hl7.org/CodeSystem/observation-category",
          "code": "laboratory"
        } ]
      } ],
      "code": {
        "coding": [ {
          "system": "http://loinc.org",
          "version": "2.80",
          "code": "33732-9",
          "display": "Histology grade [Identifier] in Cancer specimen"
        }, {
          "system": "http://snomed.info/sct",
          "version": "http://snomed.info/sct/900000000000207008/version/20250501",
          "code": "371469007",
          "display": "Histologic grade of neoplasm (observable entity)"
        } ]
      },
      "subject": {
        "reference": "Patient/17fd07c897c1b71242be625380c0f570dd1262c3e8e6716c09819705494d65b5"
      },
      "focus": [ {
        "reference": "Condition/4393db103a425cb0cd10bbe605906f715ceac791e2c02e59e73069b9f136cddd"
      } ],
      "effectiveDateTime": "2022-08-05",
      "valueCodeableConcept": {
        "coding": [ {
          "system": "https://www.medizininformatik-initiative.de/fhir/ext/modul-onko/CodeSystem/mii-cs-onko-grading",
          "code": "3"
        } ]
      },
      "specimen": {
        "reference": "Specimen/f88f01f8376de7db60d4497121febc5659d9877f9268d25f6ca240fac028dc16"
      }
    },
    "request": {
      "method": "PUT",
      "url": "Observation/6bd43fb23b560d6bc1fe13a1fd769746e09aaee2d305a7c407e88265f197c60c"
    }
  }, {
    "fullUrl": "Observation/8bb936c1adbad113c944ad7e7843a5bc15755be9e5d103d56e89553fc1d05865",
    "resource": {
      "resourceType": "Observation",
      "id": "8bb936c1adbad113c944ad7e7843a5bc15755be9e5d103d56e89553fc1d05865",
      "meta": {
        "profile": [ "https://www.medizininformatik-initiative.de/fhir/ext/modul-onko/StructureDefinition/mii-pr-onko-anzahl-befallene-lymphknoten" ]
      },
      "identifier": [ {
        "system": "https://bzkf.github.io/obds-to-fhir/identifiers/observation-histologie-id",
        "value": "269-befallen"
      } ],
      "status": "final",
      "category": [ {
        "coding": [ {
          "system": "http://terminology.hl7.org/CodeSystem/observation-category",
          "code": "laboratory"
        } ]
      } ],
      "code": {
        "coding": [ {
          "system": "http://loinc.org",
          "version": "2.80",
          "code": "21893-3"
        }, {
          "system": "http://snomed.info/sct",
          "version": "http://snomed.info/sct/900000000000207008/version/20250501",
          "code": "443527007"
        } ]
      },
      "subject": {
        "reference": "Patient/17fd07c897c1b71242be625380c0f570dd1262c3e8e6716c09819705494d65b5"
      },
      "focus": [ {
        "reference": "Condition/4393db103a425cb0cd10bbe605906f715ceac791e2c02e59e73069b9f136cddd"
      } ],
      "effectiveDateTime": "2022-08-05",
      "valueQuantity": {
        "value": 3,
        "unit": "#",
        "system": "http://unitsofmeasure.org",
        "code": "1"
      },
      "specimen": {
        "reference": "Specimen/f88f01f8376de7db60d4497121febc5659d9877f9268d25f6ca240fac028dc16"
      }
    },
    "request": {
      "method": "PUT",
      "url": "Observation/8bb936c1adbad113c944ad7e7843a5bc15755be9e5d103d56e89553fc1d05865"
    }
  }, {
    "fullUrl": "Observation/7205f6fdf38c9be924ccd3da78a2f7f95836d1397c548337a3c8f02e3e4ed8a8",
    "resource": {
      "resourceType": "Observation",
      "id": "7205f6fdf38c9be924ccd3da78a2f7f95836d1397c548337a3c8f02e3e4ed8a8",
      "meta": {
        "profile": [ "https://www.medizininformatik-initiative.de/fhir/ext/modul-onko/StructureDefinition/mii-pr-onko-anzahl-untersuchte-lymphknoten" ]
      },
      "identifier": [ {
        "system": "https://bzkf.github.io/obds-to-fhir/identifiers/observation-histologie-id",
        "value": "269-untersucht"
      } ],
      "status": "final",
      "category": [ {
        "coding": [ {
          "system": "http://terminology.hl7.org/CodeSystem/observation-category",
          "code": "laboratory"
        } ]
      } ],
      "code": {
        "coding": [ {
          "system": "http://loinc.org",
          "version": "2.80",
          "code": "21894-1"
        }, {
          "system": "http://snomed.info/sct",
          "version": "http://snomed.info/sct/900000000000207008/version/20250501",
          "code": "444025001"
        } ]
      },
      "subject": {
        "reference": "Patient/17fd07c897c1b71242be625380c0f570dd1262c3e8e6716c09819705494d65b5"
      },
      "focus": [ {
        "reference": "Condition/4393db103a425cb0cd10bbe605906f715ceac791e2c02e59e73069b9f136cddd"
      } ],
      "effectiveDateTime": "2022-08-05",
      "valueQuantity": {
        "value": 6,
        "unit": "#",
        "system": "http://unitsofmeasure.org",
        "code": "1"
      },
      "specimen": {
        "reference": "Specimen/f88f01f8376de7db60d4497121febc5659d9877f9268d25f6ca240fac028dc16"
      }
    },
    "request": {
      "method": "PUT",
      "url": "Observation/7205f6fdf38c9be924ccd3da78a2f7f95836d1397c548337a3c8f02e3e4ed8a8"
    }
  }, {
    "fullUrl": "Observation/b3e660b81ccb28724d517efbb293dde836b28a0c878b5e4c5dcec1fb51d1d054",
    "resource": {
      "resourceType": "Observation",
      "id": "b3e660b81ccb28724d517efbb293dde836b28a0c878b5e4c5dcec1fb51d1d054",
      "meta": {
        "profile": [ "https://www.medizininformatik-initiative.de/fhir/ext/modul-onko/StructureDefinition/mii-pr-onko-anzahl-befallene-sentinel-lymphknoten" ]
      },
      "identifier": [ {
        "system": "https://bzkf.github.io/obds-to-fhir/identifiers/observation-histologie-id",
        "value": "269-befallen-sentinel"
      } ],
      "status": "final",
      "category": [ {
        "coding": [ {
          "system": "http://terminology.hl7.org/CodeSystem/observation-category",
          "code": "laboratory"
        } ]
      } ],
      "code": {
        "coding": [ {
          "system": "http://loinc.org",
          "version": "2.80",
          "code": "92832-5"
        }, {
          "system": "http://snomed.info/sct",
          "version": "http://snomed.info/sct/900000000000207008/version/20250501",
          "code": "1264491009"
        } ]
      },
      "subject": {
        "reference": "Patient/17fd07c897c1b71242be625380c0f570dd1262c3e8e6716c09819705494d65b5"
      },
      "focus": [ {
        "reference": "Condition/4393db103a425cb0cd10bbe605906f715ceac791e2c02e59e73069b9f136cddd"
      } ],
      "effectiveDateTime": "2022-08-05",
      "valueQuantity": {
        "value": 1,
        "unit": "#",
        "system": "http://unitsofmeasure.org",
        "code": "1"
      },
      "specimen": {
        "reference": "Specimen/f88f01f8376de7db60d4497121febc5659d9877f9268d25f6ca240fac028dc16"
      }
    },
    "request": {
      "method": "PUT",
      "url": "Observation/b3e660b81ccb28724d517efbb293dde836b28a0c878b5e4c5dcec1fb51d1d054"
    }
  }, {
    "fullUrl": "Observation/9dec715203286cc62fb695d7dcc617fc6dc0a58a4fe74ea6c64d63e99f5da8d6",
    "resource": {
      "resourceType": "Observation",
      "id": "9dec715203286cc62fb695d7dcc617fc6dc0a58a4fe74ea6c64d63e99f5da8d6",
      "meta": {
        "profile": [ "https://www.medizininformatik-initiative.de/fhir/ext/modul-onko/StructureDefinition/mii-pr-onko-anzahl-untersuchte-sentinel-lymphknoten" ]
      },
      "identifier": [ {
        "system": "https://bzkf.github.io/obds-to-fhir/identifiers/observation-histologie-id",
        "value": "269-untersucht-sentinel"
      } ],
      "status": "final",
      "category": [ {
        "coding": [ {
          "system": "http://terminology.hl7.org/CodeSystem/observation-category",
          "code": "laboratory"
        } ]
      } ],
      "code": {
        "coding": [ {
          "system": "http://loinc.org",
          "version": "2.80",
          "code": "85347-3"
        }, {
          "system": "http://snomed.info/sct",
          "version": "http://snomed.info/sct/900000000000207008/version/20250501",
          "code": "444411008"
        } ]
      },
      "subject": {
        "reference": "Patient/17fd07c897c1b71242be625380c0f570dd1262c3e8e6716c09819705494d65b5"
      },
      "focus": [ {
        "reference": "Condition/4393db103a425cb0cd10bbe605906f715ceac791e2c02e59e73069b9f136cddd"
      } ],
      "effectiveDateTime": "2022-08-05",
      "valueQuantity": {
        "value": 2,
        "unit": "#",
        "system": "http://unitsofmeasure.org",
        "code": "1"
      },
      "specimen": {
        "reference": "Specimen/f88f01f8376de7db60d4497121febc5659d9877f9268d25f6ca240fac028dc16"
      }
    },
    "request": {
      "method": "PUT",
      "url": "Observation/9dec715203286cc62fb695d7dcc617fc6dc0a58a4fe74ea6c64d63e99f5da8d6"
    }
  }, {
    "fullUrl": "Observation/7df77964205346253bbdb46fe59d65a1ba53c8d67248d60995a97143b00fdffb",
    "resource": {
      "resourceType": "Observation",
      "id": "7df77964205346253bbdb46fe59d65a1ba53c8d67248d60995a97143b00fdffb",
      "meta": {
        "profile": [ "https://www.medizininformatik-initiative.de/fhir/ext/modul-onko/StructureDefinition/mii-pr-onko-fernmetastasen" ]
      },
      "identifier": [ {
        "system": "https://bzkf.github.io/obds-to-fhir/identifiers/fernmetastasen-id",
        "value": "PAT_70101-Pathologie-0"
      } ],
      "status": "final",
      "code": {
        "coding": [ {
          "system": "http://snomed.info/sct",
          "version": "http://snomed.info/sct/900000000000207008/version/20250501",
          "code": "385421009",
          "display": "Anatomic location of metastatic spread of malignant neoplasm (observable entity)"
        } ]
      },
      "subject": {
        "reference": "Patient/17fd07c897c1b71242be625380c0f570dd1262c3e8e6716c09819705494d65b5"
      },
      "focus": [ {
        "reference": "Condition/4393db103a425cb0cd10bbe605906f715ceac791e2c02e59e73069b9f136cddd"
      } ],
      "effectiveDateTime": "2022-08-05",
      "valueCodeableConcept": {
        "coding": [ {
          "system": "https://www.medizininformatik-initiative.de/fhir/ext/modul-onko/CodeSystem/mii-cs-onko-fernmetastasen",
          "code": "PUL"
        } ]
      }
    },
    "request": {
      "method": "PUT",
      "url": "Observation/7df77964205346253bbdb46fe59d65a1ba53c8d67248d60995a97143b00fdffb"
    }
  }, {
    "fullUrl": "Observation/6cbb8ce0d54fa385c916eeacf2a9419f09e2e0bf0599d70c32de59e8ae1b39ca",
    "resource": {
      "resourceType": "Observation",
      "id": "6cbb8ce0d54fa385c916eeacf2a9419f09e2e0bf0599d70c32de59e8ae1b39ca",
      "meta": {
        "profile": [ "https://www.medizininformatik-initiative.de/fhir/ext/modul-onko/StructureDefinition/mii-pr-onko-genetische-variante" ]
      },
      "identifier": [ {
        "system": "https://bzkf.github.io/obds-to-fhir/identifiers/genetische-variante-id",
        "value": "GenetischeAuspraegung-Pathologie-PAT_70101-M-0"
      } ],
      "status": "final",
      "category": [ {
        "coding": [ {
          "system": "http://terminology.hl7.org/CodeSystem/observation-category",
          "code": "laboratory",
          "display": "Laboratory"
        } ]
      } ],
      "code": {
        "coding": [ {
          "system": "http://loinc.org",
          "version": "2.80",
          "code": "69548-6",
          "display": "Genetic variant assessment"
        } ]
      },
      "subject": {
        "reference": "Patient/17fd07c897c1b71242be625380c0f570dd1262c3e8e6716c09819705494d65b5"
      },
      "focus": [ {
        "reference": "Condition/4393db103a425cb0cd10bbe605906f715ceac791e2c02e59e73069b9f136cddd"
      } ],
      "effectiveDateTime": "2022-08-05",
      "interpretation": [ {
        "coding": [ {
          "system": "https://www.medizininformatik-initiative.de/fhir/ext/modul-onko/CodeSystem/mii-cs-onko-genetische-variante-auspraegung",
          "code": "M"
        } ]
      } ],
      "note": [ {
        "text": "BRCA 1"
      } ]
    },
    "request": {
      "method": "PUT",
      "url": "Observation/6cbb8ce0d54fa385c916eeacf2a9419f09e2e0bf0599d70c32de59e8ae1b39ca"
    }
  }, {
    "fullUrl": "Observation/59e09d211ca79daeeec46cd2369aca6db6abad944e30db23087614c2db2f7f7d",
    "resource": {
      "resourceType": "Observation",
      "id": "59e09d211ca79daeeec46cd2369aca6db6abad944e30db23087614c2db2f7f7d",
      "meta": {
        "profile": [ "https://www.medizininformatik-initiative.de/fhir/ext/modul-onko/StructureDefinition/mii-pr-onko-genetische-variante" ]
      },
      "identifier": [ {
        "system": "https://bzkf.github.io/obds-to-fhir/identifiers/genetische-variante-id",
        "value": "GenetischeAuspraegung-Pathologie-PAT_70101-1"
      } ],
      "status": "final",
      "category": [ {
        "coding": [ {
          "system": "http://terminology.hl7.org/CodeSystem/observation-category",
          "code": "laboratory",
          "display": "Laboratory"
        } ]
      } ],
      "code": {
        "coding": [ {
          "system": "http://loinc.org",
          "version": "2.80",
          "code": "69548-6",
          "display": "Genetic variant assessment"
        } ]
      },
      "subject": {
        "reference": "Patient/17fd07c897c1b71242be625380c0f570dd1262c3e8e6716c09819705494d65b5"
      },
      "focus": [ {
        "reference": "Condition/4393db103a425cb0cd10bbe605906f715ceac791e2c02e59e73069b9f136cddd"
      } ],
      "effectiveDateTime": "2022-08-05",
      "interpretation": [ {
        "coding": [ {
          "system": "https://www.medizininformatik-initiative.de/fhir/ext/modul-onko/CodeSystem/mii-cs-onko-genetische-variante-auspraegung",
          "code": "S"
        } ],
        "text": "Translation"
      } ],
      "note": [ {
        "text": "BRCA 2"
      } ]
    },
    "request": {
      "method": "PUT",
      "url": "Observation/59e09d211ca79daeeec46cd2369aca6db6abad944e30db23087614c2db2f7f7d"
    }
  }, {
    "fullUrl": "Observation/52b8c69abb6259c7a48f6319105088029b415374dcc80e214233af3e294643ea",
    "resource": {
      "resourceType": "Observation",
      "id": "52b8c69abb6259c7a48f6319105088029b415374dcc80e214233af3e294643ea",
      "meta": {
        "profile": [ "https://www.medizininformatik-initiative.de/fhir/ext/modul-onko/StructureDefinition/mii-pr-onko-tnm-t-kategorie" ]
      },
      "identifier": [ {
        "system": "https://bzkf.github.io/obds-to-fhir/identifiers/tnm-t-kategorie-observation-id",
        "value": "256-p-T"
      } ],
      "status": "final",
      "code": {
        "extension": [ {
          "url": "https://www.medizininformatik-initiative.de/fhir/ext/modul-onko/StructureDefinition/mii-ex-onko-tnm-cp-praefix",
          "valueCodeableConcept": {
            "coding": [ {
              "system": "https://www.uicc.org/resources/tnm",
              "code": "p"
            } ]
          }
        } ],
        "coding": [ {
          "system": "http://snomed.info/sct",
          "version": "http://snomed.info/sct/900000000000207008/version/20250501",
          "code": "384625004",
          "display": "pT category (observable entity)"
        } ]
      },
      "subject": {
        "reference": "Patient/17fd07c897c1b71242be625380c0f570dd1262c3e8e6716c09819705494d65b5"
      },
      "focus": [ {
        "reference": "Condition/4393db103a425cb0cd10bbe605906f715ceac791e2c02e59e73069b9f136cddd"
      } ],
      "effectiveDateTime": "2022-08-05",
      "valueCodeableConcept": {
        "coding": [ {
          "system": "https://www.uicc.org/resources/tnm",
          "code": "T4a"
        } ]
      },
      "method": {
        "coding": [ {
          "system": "https://www.medizininformatik-initiative.de/fhir/ext/modul-onko/CodeSystem/mii-cs-onko-tnm-version",
          "code": "8"
        } ]
      }
    },
    "request": {
      "method": "PUT",
      "url": "Observation/52b8c69abb6259c7a48f6319105088029b415374dcc80e214233af3e294643ea"
    }
  }, {
    "fullUrl": "Observation/f186dac5fa019c59d7455494e7447cede55b917fa04c1c5c2d1c556b884f61bd",
    "resource": {
      "resourceType": "Observation",
      "id": "f186dac5fa019c59d7455494e7447cede55b917fa04c1c5c2d1c556b884f61bd",
      "meta": {
        "profile": [ "https://www.medizininformatik-initiative.de/fhir/ext/modul-onko/StructureDefinition/mii-pr-onko-tnm-n-kategorie" ]
      },
      "identifier": [ {
        "system": "https://bzkf.github.io/obds-to-fhir/identifiers/tnm-n-kategorie-observation-id",
        "value": "256-p-N"
      } ],
      "status": "final",
      "code": {
        "extension": [ {
          "url": "https://www.medizininformatik-initiative.de/fhir/ext/modul-onko/StructureDefinition/mii-ex-onko-tnm-cp-praefix",
          "valueCodeableConcept": {
            "coding": [ {
              "system": "https://www.uicc.org/resources/tnm",
              "code": "p"
            } ]
          }
        } ],
        "coding": [ {
          "system": "http://snomed.info/sct",
          "version": "http://snomed.info/sct/900000000000207008/version/20250501",
          "code": "371494008",
          "display": "pN category (observable entity)"
        } ]
      },
      "subject": {
        "reference": "Patient/17fd07c897c1b71242be625380c0f570dd1262c3e8e6716c09819705494d65b5"
      },
      "focus": [ {
        "reference": "Condition/4393db103a425cb0cd10bbe605906f715ceac791e2c02e59e73069b9f136cddd"
      } ],
      "effectiveDateTime": "2022-08-05",
      "valueCodeableConcept": {
        "coding": [ {
          "system": "https://www.uicc.org/resources/tnm",
          "code": "N1a"
        } ]
      },
      "method": {
        "coding": [ {
          "system": "https://www.medizininformatik-initiative.de/fhir/ext/modul-onko/CodeSystem/mii-cs-onko-tnm-version",
          "code": "8"
        } ]
      }
    },
    "request": {
      "method": "PUT",
      "url": "Observation/f186dac5fa019c59d7455494e7447cede55b917fa04c1c5c2d1c556b884f61bd"
    }
  }, {
    "fullUrl": "Observation/032e8692b4773c5edad51155587d30233618cf0db85070ccc407d4c3cfd3f8fc",
    "resource": {
      "resourceType": "Observation",
      "id": "032e8692b4773c5edad51155587d30233618cf0db85070ccc407d4c3cfd3f8fc",
      "meta": {
        "profile": [ "https://www.medizininformatik-initiative.de/fhir/ext/modul-onko/StructureDefinition/mii-pr-onko-tnm-m-kategorie" ]
      },
      "identifier": [ {
        "system": "https://bzkf.github.io/obds-to-fhir/identifiers/tnm-m-kategorie-observation-id",
        "value": "256-p-M"
      } ],
      "status": "final",
      "code": {
        "extension": [ {
          "url": "https://www.medizininformatik-initiative.de/fhir/ext/modul-onko/StructureDefinition/mii-ex-onko-tnm-cp-praefix",
          "valueCodeableConcept": {
            "coding": [ {
              "system": "https://www.uicc.org/resources/tnm",
              "code": "p"
            } ]
          }
        } ],
        "coding": [ {
          "system": "http://snomed.info/sct",
          "version": "http://snomed.info/sct/900000000000207008/version/20250501",
          "code": "371497001",
          "display": "pM category (observable entity)"
        } ]
      },
      "subject": {
        "reference": "Patient/17fd07c897c1b71242be625380c0f570dd1262c3e8e6716c09819705494d65b5"
      },
      "focus": [ {
        "reference": "Condition/4393db103a425cb0cd10bbe605906f715ceac791e2c02e59e73069b9f136cddd"
      } ],
      "effectiveDateTime": "2022-08-05",
      "valueCodeableConcept": {
        "coding": [ {
          "system": "https://www.uicc.org/resources/tnm",
          "code": "M1"
        } ]
      },
      "method": {
        "coding": [ {
          "system": "https://www.medizininformatik-initiative.de/fhir/ext/modul-onko/CodeSystem/mii-cs-onko-tnm-version",
          "code": "8"
        } ]
      }
    },
    "request": {
      "method": "PUT",
      "url": "Observation/032e8692b4773c5edad51155587d30233618cf0db85070ccc407d4c3cfd3f8fc"
    }
  }, {
    "fullUrl": "Observation/4f72507aeb9eedc7b05914155b6aabddf090d5be5ff1988064242154996edc52",
    "resource": {
      "resourceType": "Observation",
      "id": "4f72507aeb9eedc7b05914155b6aabddf090d5be5ff1988064242154996edc52",
      "meta": {
        "profile": [ "https://www.medizininformatik-initiative.de/fhir/ext/modul-onko/StructureDefinition/mii-pr-onko-tnm-m-symbol" ]
      },
      "identifier": [ {
        "system": "https://bzkf.github.io/obds-to-fhir/identifiers/tnm-m-symbol-observation-id",
        "value": "256-p-m"
      } ],
      "status": "final",
      "code": {
        "coding": [ {
          "system": "http://loinc.org",
          "version": "2.80",
          "code": "42030-7"
        } ]
      },
      "subject": {
        "reference": "Patient/17fd07c897c1b71242be625380c0f570dd1262c3e8e6716c09819705494d65b5"
      },
      "focus": [ {
        "reference": "Condition/4393db103a425cb0cd10bbe605906f715ceac791e2c02e59e73069b9f136cddd"
      } ],
      "effectiveDateTime": "2022-08-05",
      "valueCodeableConcept": {
        "coding": [ {
          "system": "https://www.uicc.org/resources/tnm",
          "code": "m"
        } ]
      },
      "method": {
        "coding": [ {
          "system": "https://www.medizininformatik-initiative.de/fhir/ext/modul-onko/CodeSystem/mii-cs-onko-tnm-version",
          "code": "8"
        } ]
      }
    },
    "request": {
      "method": "PUT",
      "url": "Observation/4f72507aeb9eedc7b05914155b6aabddf090d5be5ff1988064242154996edc52"
    }
  }, {
    "fullUrl": "Observation/23ad791831dff4ee87f331441519bf2adbd4223cc22b5820f119af9fd8da514a",
    "resource": {
      "resourceType": "Observation",
      "id": "23ad791831dff4ee87f331441519bf2adbd4223cc22b5820f119af9fd8da514a",
      "meta": {
        "profile": [ "https://www.medizininformatik-initiative.de/fhir/ext/modul-onko/StructureDefinition/mii-pr-onko-tnm-l-kategorie" ]
      },
      "identifier": [ {
        "system": "https://bzkf.github.io/obds-to-fhir/identifiers/tnm-l-kategorie-observation-id",
        "value": "256-p-L"
      } ],
      "status": "final",
      "code": {
        "coding": [ {
          "system": "http://snomed.info/sct",
          "version": "http://snomed.info/sct/900000000000207008/version/20250501",
          "code": "395715009"
        } ]
      },
      "subject": {
        "reference": "Patient/17fd07c897c1b71242be625380c0f570dd1262c3e8e6716c09819705494d65b5"
      },
      "focus": [ {
        "reference": "Condition/4393db103a425cb0cd10bbe605906f715ceac791e2c02e59e73069b9f136cddd"
      } ],
      "effectiveDateTime": "2022-08-05",
      "valueCodeableConcept": {
        "coding": [ {
          "system": "https://www.uicc.org/resources/tnm",
          "code": "L1"
        } ]
      },
      "method": {
        "coding": [ {
          "system": "https://www.medizininformatik-initiative.de/fhir/ext/modul-onko/CodeSystem/mii-cs-onko-tnm-version",
          "code": "8"
        } ]
      }
    },
    "request": {
      "method": "PUT",
      "url": "Observation/23ad791831dff4ee87f331441519bf2adbd4223cc22b5820f119af9fd8da514a"
    }
  }, {
    "fullUrl": "Observation/59be49aff207176516ae035d21e85ec17494edf3ad2306643ef9a7bc7025dc91",
    "resource": {
      "resourceType": "Observation",
      "id": "59be49aff207176516ae035d21e85ec17494edf3ad2306643ef9a7bc7025dc91",
      "meta": {
        "profile": [ "https://www.medizininformatik-initiative.de/fhir/ext/modul-onko/StructureDefinition/mii-pr-onko-tnm-pn-kategorie" ]
      },
      "identifier": [ {
        "system": "https://bzkf.github.io/obds-to-fhir/identifiers/tnm-pn-kategorie-observation-id",
        "value": "256-p-Pn"
      } ],
      "status": "final",
      "code": {
        "coding": [ {
          "system": "http://snomed.info/sct",
          "version": "http://snomed.info/sct/900000000000207008/version/20250501",
          "code": "371513001"
        } ]
      },
      "subject": {
        "reference": "Patient/17fd07c897c1b71242be625380c0f570dd1262c3e8e6716c09819705494d65b5"
      },
      "focus": [ {
        "reference": "Condition/4393db103a425cb0cd10bbe605906f715ceac791e2c02e59e73069b9f136cddd"
      } ],
      "effectiveDateTime": "2022-08-05",
      "valueCodeableConcept": {
        "coding": [ {
          "system": "https://www.uicc.org/resources/tnm",
          "code": "Pn0"
        } ]
      },
      "method": {
        "coding": [ {
          "system": "https://www.medizininformatik-initiative.de/fhir/ext/modul-onko/CodeSystem/mii-cs-onko-tnm-version",
          "code": "8"
        } ]
      }
    },
    "request": {
      "method": "PUT",
      "url": "Observation/59be49aff207176516ae035d21e85ec17494edf3ad2306643ef9a7bc7025dc91"
    }
  }, {
    "fullUrl": "Observation/ed43173fdfa1e3b7072b6ca2e28536b322b58bc63095d6dfe8b355f46bbe9f42",
    "resource": {
      "resourceType": "Observation",
      "id": "ed43173fdfa1e3b7072b6ca2e28536b322b58bc63095d6dfe8b355f46bbe9f42",
      "meta": {
        "profile": [ "https://www.medizininformatik-initiative.de/fhir/ext/modul-onko/StructureDefinition/mii-pr-onko-tnm-r-symbol" ]
      },
      "identifier": [ {
        "system": "https://bzkf.github.io/obds-to-fhir/identifiers/tnm-r-symbol-observation-id",
        "value": "256-p-r"
      } ],
      "status": "final",
      "code": {
        "coding": [ {
          "system": "http://loinc.org",
          "version": "2.80",
          "code": "101659-1"
        } ]
      },
      "subject": {
        "reference": "Patient/17fd07c897c1b71242be625380c0f570dd1262c3e8e6716c09819705494d65b5"
      },
      "focus": [ {
        "reference": "Condition/4393db103a425cb0cd10bbe605906f715ceac791e2c02e59e73069b9f136cddd"
      } ],
      "effectiveDateTime": "2022-08-05",
      "valueCodeableConcept": {
        "coding": [ {
          "system": "http://snomed.info/sct",
          "version": "http://snomed.info/sct/900000000000207008/version/20250501",
          "code": "421188008"
        } ]
      },
      "method": {
        "coding": [ {
          "system": "https://www.medizininformatik-initiative.de/fhir/ext/modul-onko/CodeSystem/mii-cs-onko-tnm-version",
          "code": "8"
        } ]
      }
    },
    "request": {
      "method": "PUT",
      "url": "Observation/ed43173fdfa1e3b7072b6ca2e28536b322b58bc63095d6dfe8b355f46bbe9f42"
    }
  }, {
    "fullUrl": "Observation/532a26f94b722dc6bcac72c0956258eac5aaf99d505d3e62659f1f3e33582c81",
    "resource": {
      "resourceType": "Observation",
      "id": "532a26f94b722dc6bcac72c0956258eac5aaf99d505d3e62659f1f3e33582c81",
      "meta": {
        "profile": [ "https://www.medizininformatik-initiative.de/fhir/ext/modul-onko/StructureDefinition/mii-pr-onko-tnm-v-kategorie" ]
      },
      "identifier": [ {
        "system": "https://bzkf.github.io/obds-to-fhir/identifiers/tnm-v-kategorie-observation-id",
        "value": "256-p-V"
      } ],
      "status": "final",
      "code": {
        "coding": [ {
          "system": "http://snomed.info/sct",
          "version": "http://snomed.info/sct/900000000000207008/version/20250501",
          "code": "371493002"
        } ]
      },
      "subject": {
        "reference": "Patient/17fd07c897c1b71242be625380c0f570dd1262c3e8e6716c09819705494d65b5"
      },
      "focus": [ {
        "reference": "Condition/4393db103a425cb0cd10bbe605906f715ceac791e2c02e59e73069b9f136cddd"
      } ],
      "effectiveDateTime": "2022-08-05",
      "valueCodeableConcept": {
        "coding": [ {
          "system": "https://www.uicc.org/resources/tnm",
          "code": "V1"
        } ]
      },
      "method": {
        "coding": [ {
          "system": "https://www.medizininformatik-initiative.de/fhir/ext/modul-onko/CodeSystem/mii-cs-onko-tnm-version",
          "code": "8"
        } ]
      }
    },
    "request": {
      "method": "PUT",
      "url": "Observation/532a26f94b722dc6bcac72c0956258eac5aaf99d505d3e62659f1f3e33582c81"
    }
  }, {
    "fullUrl": "Observation/5677b0c2296d6f33f4090c105140324c1bf947130b241cb3c8bf73bd68759c5c",
    "resource": {
      "resourceType": "Observation",
      "id": "5677b0c2296d6f33f4090c105140324c1bf947130b241cb3c8bf73bd68759c5c",
      "meta": {
        "profile": [ "https://www.medizininformatik-initiative.de/fhir/ext/modul-onko/StructureDefinition/mii-pr-onko-tnm-y-symbol" ]
      },
      "identifier": [ {
        "system": "https://bzkf.github.io/obds-to-fhir/identifiers/tnm-y-symbol-observation-id",
        "value": "256-p-y"
      } ],
      "status": "final",
      "code": {
        "coding": [ {
          "system": "http://loinc.org",
          "version": "2.80",
          "code": "101658-3"
        } ]
      },
      "subject": {
        "reference": "Patient/17fd07c897c1b71242be625380c0f570dd1262c3e8e6716c09819705494d65b5"
      },
      "focus": [ {
        "reference": "Condition/4393db103a425cb0cd10bbe605906f715ceac791e2c02e59e73069b9f136cddd"
      } ],
      "effectiveDateTime": "2022-08-05",
      "valueCodeableConcept": {
        "coding": [ {
          "system": "http://snomed.info/sct",
          "version": "http://snomed.info/sct/900000000000207008/version/20250501",
          "code": "421755005"
        } ]
      },
      "method": {
        "coding": [ {
          "system": "https://www.medizininformatik-initiative.de/fhir/ext/modul-onko/CodeSystem/mii-cs-onko-tnm-version",
          "code": "8"
        } ]
      }
    },
    "request": {
      "method": "PUT",
      "url": "Observation/5677b0c2296d6f33f4090c105140324c1bf947130b241cb3c8bf73bd68759c5c"
    }
  }, {
    "fullUrl": "Observation/96558616b472d81a721f094d88b6886081f7e5b15584fcfce80f53ffe6e218c4",
    "resource": {
      "resourceType": "Observation",
      "id": "96558616b472d81a721f094d88b6886081f7e5b15584fcfce80f53ffe6e218c4",
      "meta": {
        "profile": [ "https://www.medizininformatik-initiative.de/fhir/ext/modul-onko/StructureDefinition/mii-pr-onko-tnm-klassifikation" ]
      },
      "identifier": [ {
        "system": "https://bzkf.github.io/obds-to-fhir/identifiers/tnm-grouping-observation-id",
        "value": "256-p"
      } ],
      "status": "final",
      "code": {
        "coding": [ {
          "system": "http://snomed.info/sct",
          "version": "http://snomed.info/sct/900000000000207008/version/20250501",
          "code": "399588009",
          "display": "Pathologic TNM stage grouping"
        } ]
      },
      "subject": {
        "reference": "Patient/17fd07c897c1b71242be625380c0f570dd1262c3e8e6716c09819705494d65b5"
      },
      "focus": [ {
        "reference": "Condition/4393db103a425cb0cd10bbe605906f715ceac791e2c02e59e73069b9f136cddd"
      } ],
      "effectiveDateTime": "2022-08-05",
      "valueCodeableConcept": {
        "coding": [ {
          "system": "https://www.uicc.org/resources/tnm",
          "code": "IV",
          "display": "Stadium IV"
        } ]
      },
      "method": {
        "coding": [ {
          "system": "https://www.medizininformatik-initiative.de/fhir/ext/modul-onko/CodeSystem/mii-cs-onko-tnm-version",
          "code": "8"
        } ]
      },
      "hasMember": [ {
        "reference": "Observation/52b8c69abb6259c7a48f6319105088029b415374dcc80e214233af3e294643ea"
      }, {
        "reference": "Observation/f186dac5fa019c59d7455494e7447cede55b917fa04c1c5c2d1c556b884f61bd"
      }, {
        "reference": "Observation/032e8692b4773c5edad51155587d30233618cf0db85070ccc407d4c3cfd3f8fc"
      }, {
        "reference": "Observation/4f72507aeb9eedc7b05914155b6aabddf090d5be5ff1988064242154996edc52"
      }, {
        "reference": "Observation/23ad791831dff4ee87f331441519bf2adbd4223cc22b5820f119af9fd8da514a"
      }, {
        "reference": "Observation/59be49aff207176516ae035d21e85ec17494edf3ad2306643ef9a7bc7025dc91"
      }, {
        "reference": "Observation/ed43173fdfa1e3b7072b6ca2e28536b322b58bc63095d6dfe8b355f46bbe9f42"
      }, {
        "reference": "Observation/532a26f94b722dc6bcac72c0956258eac5aaf99d505d3e62659f1f3e33582c81"
      }, {
        "reference": "Observation/5677b0c2296d6f33f4090c105140324c1bf947130b241cb3c8bf73bd68759c5c"
      } ]
    },
    "request": {
      "method": "PUT",
      "url": "Observation/96558616b472d81a721f094d88b6886081f7e5b15584fcfce80f53ffe6e218c4"
    }
  }, {
    "fullUrl": "DiagnosticReport/dbd58c18b6360f5db3b0e6595a976abb94a71c176689e2dc30a156fde98fa20b",
    "resource": {
      "resourceType": "DiagnosticReport",
      "id": "dbd58c18b6360f5db3b0e6595a976abb94a71c176689e2dc30a156fde98fa20b",
      "meta": {
        "profile": [ "https://www.medizininformatik-initiative.de/fhir/ext/modul-onko/StructureDefinition/mii-pr-onko-befund" ]
      },
      "identifier": [ {
        "system": "https://bzkf.github.io/obds-to-fhir/identifiers/histologiebefund-diagnostic-report-id",
        "value": "PAT_70101"
      } ],
      "status": "final",
      "code": {
        "coding": [ {
          "system": "http://loinc.org",
          "version": "2.80",
          "code": "22034-3",
          "display": "Pathology report Cancer Narrative"
        } ]
      },
      "subject": {
        "reference": "Patient/17fd07c897c1b71242be625380c0f570dd1262c3e8e6716c09819705494d65b5"
      },
      "specimen": [ {
        "reference": "Specimen/f88f01f8376de7db60d4497121febc5659d9877f9268d25f6ca240fac028dc16"
      } ],
      "conclusion": "Lorem ipsum dolor sit amet, consetetur sadipscing elitr, sed diam nonumy eirmod tempor invidunt ut labore et dolore magna aliquyam erat, sed diam voluptua. At vero eos et accusam et justo duo dolores et ea rebum. Stet clita kasd gubergren, no sea takimata sanctus est Lorem ipsum dolor sit amet. Lorem ipsum dolor sit amet, consetetur sadipscing elitr, sed diam nonumy eirmod tempor invidunt ut labore et dolore magna aliquyam erat, sed diam voluptua. At vero eos et accusam et justo duo dolores et ea rebum. Stet clita kasd gubergren, no sea takimata sanctus est Lorem ipsum dolor sit amet."
    },
    "request": {
      "method": "PUT",
      "url": "DiagnosticReport/dbd58c18b6360f5db3b0e6595a976abb94a71c176689e2dc30a156fde98fa20b"
    }
  }, {
    "fullUrl": "Condition/4e6fc5b57a9068af3c8e475b67ae0b573d144421ede0955776d7a991ba4e91f5",
    "resource": {
      "resourceType": "Condition",
      "id": "4e6fc5b57a9068af3c8e475b67ae0b573d144421ede0955776d7a991ba4e91f5",
      "meta": {
        "profile": [ "https://www.medizininformatik-initiative.de/fhir/ext/modul-onko/StructureDefinition/mii-pr-onko-diagnose-primaertumor" ],
        "tag": [ {
          "system": "http://snomed.info/sct",
          "version": "http://snomed.info/sct/900000000000207008/version/20250501",
          "code": "255599008",
          "display": "Incomplete (qualifier value)"
        } ]
      },
      "extension": [ {
        "url": "https://www.medizininformatik-initiative.de/fhir/ext/modul-onko/StructureDefinition/mii-ex-onko-histology-morphology-behavior-icdo3",
        "valueCodeableConcept": {
          "coding": [ {
            "system": "http://terminology.hl7.org/CodeSystem/icd-o-3",
            "version": "33",
            "code": "8010/3"
          } ]
        }
      }, {
        "url": "http://hl7.org/fhir/StructureDefinition/condition-assertedDate",
        "valueDateTime": "2020-01-01"
      } ],
      "identifier": [ {
        "system": "https://bzkf.github.io/obds-to-fhir/identifiers/primaerdiagnose-id",
        "value": "40-402"
      } ],
      "code": {
        "coding": [ {
          "system": "http://fhir.de/CodeSystem/bfarm/icd-10-gm",
          "version": "2020",
          "code": "C20"
        } ]
      },
      "bodySite": [ {
        "coding": [ {
          "system": "https://www.medizininformatik-initiative.de/fhir/ext/modul-onko/CodeSystem/mii-cs-onko-seitenlokalisation",
          "code": "T"
        }, {
          "system": "http://snomed.info/sct",
          "version": "http://snomed.info/sct/900000000000207008/version/20250501",
          "code": "385432009",
          "display": "Not applicable (qualifier value)"
        } ]
      } ],
      "subject": {
        "reference": "Patient/17fd07c897c1b71242be625380c0f570dd1262c3e8e6716c09819705494d65b5"
      },
      "recordedDate": "2024-02-16"
    },
    "request": {
      "method": "PUT",
      "url": "Condition/4e6fc5b57a9068af3c8e475b67ae0b573d144421ede0955776d7a991ba4e91f5"
    }
  }, {
    "fullUrl": "Observation/efd645ba495d0e173ca21571b35c37367206acdb60ec70509767cd2fa09122d0",
    "resource": {
      "resourceType": "Observation",
      "id": "efd645ba495d0e173ca21571b35c37367206acdb60ec70509767cd2fa09122d0",
      "meta": {
        "profile": [ "https://www.medizininformatik-initiative.de/fhir/ext/modul-onko/StructureDefinition/mii-pr-onko-genetische-variante" ]
      },
      "identifier": [ {
        "system": "https://bzkf.github.io/obds-to-fhir/identifiers/genetische-variante-id",
        "value": "GenetischeAuspraegung-Pathologie-PAT_70103-W-0"
      } ],
      "status": "final",
      "category": [ {
        "coding": [ {
          "system": "http://terminology.hl7.org/CodeSystem/observation-category",
          "code": "laboratory",
          "display": "Laboratory"
        } ]
      } ],
      "code": {
        "coding": [ {
          "system": "http://loinc.org",
          "version": "2.80",
          "code": "69548-6",
          "display": "Genetic variant assessment"
        } ]
      },
      "subject": {
        "reference": "Patient/17fd07c897c1b71242be625380c0f570dd1262c3e8e6716c09819705494d65b5"
      },
      "focus": [ {
        "reference": "Condition/4e6fc5b57a9068af3c8e475b67ae0b573d144421ede0955776d7a991ba4e91f5"
      } ],
      "effectiveDateTime": "2020-01-13",
      "interpretation": [ {
        "coding": [ {
          "system": "https://www.medizininformatik-initiative.de/fhir/ext/modul-onko/CodeSystem/mii-cs-onko-genetische-variante-auspraegung",
          "code": "W"
        } ]
      } ],
      "note": [ {
        "text": "KRAS"
      } ]
    },
    "request": {
      "method": "PUT",
      "url": "Observation/efd645ba495d0e173ca21571b35c37367206acdb60ec70509767cd2fa09122d0"
    }
  }, {
    "fullUrl": "Observation/3bf5b07eb5b93288fb44d75e85cc70bb0f1446a497cd2465d159e264c57db3b8",
    "resource": {
      "resourceType": "Observation",
      "id": "3bf5b07eb5b93288fb44d75e85cc70bb0f1446a497cd2465d159e264c57db3b8",
      "meta": {
        "profile": [ "https://www.medizininformatik-initiative.de/fhir/ext/modul-onko/StructureDefinition/mii-pr-onko-genetische-variante" ]
      },
      "identifier": [ {
        "system": "https://bzkf.github.io/obds-to-fhir/identifiers/genetische-variante-id",
        "value": "GenetischeAuspraegung-Pathologie-PAT_70103-1"
      } ],
      "status": "final",
      "category": [ {
        "coding": [ {
          "system": "http://terminology.hl7.org/CodeSystem/observation-category",
          "code": "laboratory",
          "display": "Laboratory"
        } ]
      } ],
      "code": {
        "coding": [ {
          "system": "http://loinc.org",
          "version": "2.80",
          "code": "69548-6",
          "display": "Genetic variant assessment"
        } ]
      },
      "subject": {
        "reference": "Patient/17fd07c897c1b71242be625380c0f570dd1262c3e8e6716c09819705494d65b5"
      },
      "focus": [ {
        "reference": "Condition/4e6fc5b57a9068af3c8e475b67ae0b573d144421ede0955776d7a991ba4e91f5"
      } ],
      "effectiveDateTime": "2020-01-13",
      "interpretation": [ {
        "coding": [ {
          "system": "https://www.medizininformatik-initiative.de/fhir/ext/modul-onko/CodeSystem/mii-cs-onko-genetische-variante-auspraegung",
          "code": "S"
        } ],
        "text": "foo"
      } ],
      "note": [ {
        "text": "NRAS"
      } ]
    },
    "request": {
      "method": "PUT",
      "url": "Observation/3bf5b07eb5b93288fb44d75e85cc70bb0f1446a497cd2465d159e264c57db3b8"
    }
  }, {
    "fullUrl": "DiagnosticReport/1f13d00c583d76bc42540fa187e084aed61c9c5e3e432c9962cf2de1790aa1f2",
    "resource": {
      "resourceType": "DiagnosticReport",
      "id": "1f13d00c583d76bc42540fa187e084aed61c9c5e3e432c9962cf2de1790aa1f2",
      "meta": {
        "profile": [ "https://www.medizininformatik-initiative.de/fhir/ext/modul-onko/StructureDefinition/mii-pr-onko-befund" ]
      },
      "identifier": [ {
        "system": "https://bzkf.github.io/obds-to-fhir/identifiers/histologiebefund-diagnostic-report-id",
        "value": "PAT_70103"
      } ],
      "status": "final",
      "code": {
        "coding": [ {
          "system": "http://loinc.org",
          "version": "2.80",
          "code": "22034-3",
          "display": "Pathology report Cancer Narrative"
        } ]
      },
      "subject": {
        "reference": "Patient/17fd07c897c1b71242be625380c0f570dd1262c3e8e6716c09819705494d65b5"
      },
      "conclusion": "Lorem ipsum dolor sit amet, consectetuer adipiscing elit, sed diam nonummy nibh euismod tincidunt ut laoreet dolore magna aliquam erat volutpat. Ut wisi enim ad minim veniam, quis nostrud exercitation ulliam corper suscipit lobortis nisl ut aliquip ex ea commodo consequat. Duis autem veleum iriure dolor in hendrerit in vulputate velit esse molestie consequat, vel willum lunombro dolore eu feugiat nulla facilisis at vero eros et accumsan et iusto odio dignissim qui blandit praesent luptatum zzril delenit augue duis dolore te feugait nulla facilisi."
    },
    "request": {
      "method": "PUT",
      "url": "DiagnosticReport/1f13d00c583d76bc42540fa187e084aed61c9c5e3e432c9962cf2de1790aa1f2"
    }
  }, {
    "fullUrl": "Condition/9f65ba4bd12301996eb41445b4e3b0ec9a38c02207444021ec283cd53280d5b1",
    "resource": {
      "resourceType": "Condition",
      "id": "9f65ba4bd12301996eb41445b4e3b0ec9a38c02207444021ec283cd53280d5b1",
      "meta": {
        "profile": [ "https://www.medizininformatik-initiative.de/fhir/ext/modul-onko/StructureDefinition/mii-pr-onko-diagnose-primaertumor" ],
        "tag": [ {
          "system": "http://snomed.info/sct",
          "version": "http://snomed.info/sct/900000000000207008/version/20250501",
          "code": "255599008",
          "display": "Incomplete (qualifier value)"
        } ]
      },
      "extension": [ {
        "url": "https://www.medizininformatik-initiative.de/fhir/ext/modul-onko/StructureDefinition/mii-ex-onko-histology-morphology-behavior-icdo3",
        "valueCodeableConcept": {
          "coding": [ {
            "system": "http://terminology.hl7.org/CodeSystem/icd-o-3",
            "version": "33",
            "code": "8720/3"
          } ]
        }
      }, {
        "url": "http://hl7.org/fhir/StructureDefinition/condition-assertedDate",
        "valueDateTime": "2020-01-01"
      } ],
      "identifier": [ {
        "system": "https://bzkf.github.io/obds-to-fhir/identifiers/primaerdiagnose-id",
        "value": "40-403"
      } ],
      "code": {
        "coding": [ {
          "system": "http://fhir.de/CodeSystem/bfarm/icd-10-gm",
          "version": "2020",
          "code": "C43.6"
        } ]
      },
      "bodySite": [ {
        "coding": [ {
          "system": "https://www.medizininformatik-initiative.de/fhir/ext/modul-onko/CodeSystem/mii-cs-onko-seitenlokalisation",
          "code": "L"
        }, {
          "system": "http://snomed.info/sct",
          "version": "http://snomed.info/sct/900000000000207008/version/20250501",
          "code": "7771000",
          "display": "Left (qualifier value)"
        } ]
      } ],
      "subject": {
        "reference": "Patient/17fd07c897c1b71242be625380c0f570dd1262c3e8e6716c09819705494d65b5"
      },
      "recordedDate": "2024-02-16"
    },
    "request": {
      "method": "PUT",
      "url": "Condition/9f65ba4bd12301996eb41445b4e3b0ec9a38c02207444021ec283cd53280d5b1"
    }
  }, {
    "fullUrl": "Specimen/2da3bf8cee3f3f6e68af5f378ca717cee8a896209d3251d791b496651ec422b1",
    "resource": {
      "resourceType": "Specimen",
      "id": "2da3bf8cee3f3f6e68af5f378ca717cee8a896209d3251d791b496651ec422b1",
      "meta": {
        "profile": [ "https://www.medizininformatik-initiative.de/fhir/ext/modul-onko/StructureDefinition/mii-pr-onko-specimen" ]
      },
      "identifier": [ {
        "system": "https://bzkf.github.io/obds-to-fhir/identifiers/specimen-id",
        "value": "270"
      } ],
      "accessionIdentifier": {
        "value": "H000123-22"
      },
      "subject": {
        "reference": "Patient/17fd07c897c1b71242be625380c0f570dd1262c3e8e6716c09819705494d65b5"
      },
      "collection": {
        "collectedDateTime": "2020-01-01"
      }
    },
    "request": {
      "method": "PUT",
      "url": "Specimen/2da3bf8cee3f3f6e68af5f378ca717cee8a896209d3251d791b496651ec422b1"
    }
  }, {
    "fullUrl": "Observation/edb519c383e1e34d6414faabe31a561d2639f99c839366b81449980f9538dfa5",
    "resource": {
      "resourceType": "Observation",
      "id": "edb519c383e1e34d6414faabe31a561d2639f99c839366b81449980f9538dfa5",
      "meta": {
        "profile": [ "https://www.medizininformatik-initiative.de/fhir/ext/modul-onko/StructureDefinition/mii-pr-onko-histologie-icdo3" ]
      },
      "identifier": [ {
        "system": "https://bzkf.github.io/obds-to-fhir/identifiers/observation-histologie-id",
        "value": "270-ICDO3-8720-3"
      } ],
      "status": "final",
      "code": {
        "coding": [ {
          "system": "http://loinc.org",
          "version": "2.80",
          "code": "59847-4",
          "display": "Histology and Behavior ICD-O-3 Cancer"
        } ]
      },
      "subject": {
        "reference": "Patient/17fd07c897c1b71242be625380c0f570dd1262c3e8e6716c09819705494d65b5"
      },
      "focus": [ {
        "reference": "Condition/9f65ba4bd12301996eb41445b4e3b0ec9a38c02207444021ec283cd53280d5b1"
      } ],
      "effectiveDateTime": "2020-01-01",
      "valueCodeableConcept": {
        "coding": [ {
          "system": "http://terminology.hl7.org/CodeSystem/icd-o-3",
          "version": "33",
          "code": "8720/3"
        } ],
        "text": "Malignes Melanom o.n.A."
      },
      "specimen": {
        "reference": "Specimen/2da3bf8cee3f3f6e68af5f378ca717cee8a896209d3251d791b496651ec422b1"
      }
    },
    "request": {
      "method": "PUT",
      "url": "Observation/edb519c383e1e34d6414faabe31a561d2639f99c839366b81449980f9538dfa5"
    }
  }, {
    "fullUrl": "Observation/13eb2e254799582f4989eb8cc69b1f55b7706e8c1bce22d02feac6c1ce313b54",
    "resource": {
      "resourceType": "Observation",
      "id": "13eb2e254799582f4989eb8cc69b1f55b7706e8c1bce22d02feac6c1ce313b54",
      "meta": {
        "profile": [ "https://www.medizininformatik-initiative.de/fhir/ext/modul-onko/StructureDefinition/mii-pr-onko-grading" ]
      },
      "identifier": [ {
        "system": "https://bzkf.github.io/obds-to-fhir/identifiers/grading-observation-id",
        "value": "270-grading"
      } ],
      "status": "final",
      "category": [ {
        "coding": [ {
          "system": "http://terminology.hl7.org/CodeSystem/observation-category",
          "code": "laboratory"
        } ]
      } ],
      "code": {
        "coding": [ {
          "system": "http://loinc.org",
          "version": "2.80",
          "code": "33732-9",
          "display": "Histology grade [Identifier] in Cancer specimen"
        }, {
          "system": "http://snomed.info/sct",
          "version": "http://snomed.info/sct/900000000000207008/version/20250501",
          "code": "371469007",
          "display": "Histologic grade of neoplasm (observable entity)"
        } ]
      },
      "subject": {
        "reference": "Patient/17fd07c897c1b71242be625380c0f570dd1262c3e8e6716c09819705494d65b5"
      },
      "focus": [ {
        "reference": "Condition/9f65ba4bd12301996eb41445b4e3b0ec9a38c02207444021ec283cd53280d5b1"
      } ],
      "effectiveDateTime": "2020-01-01",
      "valueCodeableConcept": {
        "coding": [ {
          "system": "https://www.medizininformatik-initiative.de/fhir/ext/modul-onko/CodeSystem/mii-cs-onko-grading",
          "code": "U"
        } ]
      },
      "specimen": {
        "reference": "Specimen/2da3bf8cee3f3f6e68af5f378ca717cee8a896209d3251d791b496651ec422b1"
      }
    },
    "request": {
      "method": "PUT",
      "url": "Observation/13eb2e254799582f4989eb8cc69b1f55b7706e8c1bce22d02feac6c1ce313b54"
    }
  }, {
    "fullUrl": "DiagnosticReport/0ab8291007f01a691b1499f4ee01ececd2e1cee22737198aeabc408e4afb45bb",
    "resource": {
      "resourceType": "DiagnosticReport",
      "id": "0ab8291007f01a691b1499f4ee01ececd2e1cee22737198aeabc408e4afb45bb",
      "meta": {
        "profile": [ "https://www.medizininformatik-initiative.de/fhir/ext/modul-onko/StructureDefinition/mii-pr-onko-befund" ]
      },
      "identifier": [ {
        "system": "https://bzkf.github.io/obds-to-fhir/identifiers/histologiebefund-diagnostic-report-id",
        "value": "PAT_70104"
      } ],
      "status": "final",
      "code": {
        "coding": [ {
          "system": "http://loinc.org",
          "version": "2.80",
          "code": "22034-3",
          "display": "Pathology report Cancer Narrative"
        } ]
      },
      "subject": {
        "reference": "Patient/17fd07c897c1b71242be625380c0f570dd1262c3e8e6716c09819705494d65b5"
      },
      "specimen": [ {
        "reference": "Specimen/2da3bf8cee3f3f6e68af5f378ca717cee8a896209d3251d791b496651ec422b1"
      } ],
      "conclusion": "Lorem ipsum dolor sit amet, consectetaur adipisicing elit, sed do eiusmod tempor incididunt ut labore et dolore magna aliqua. Ut enim ad minim veniam, quis nostrud exercitation ullamco laboris nisi ut aliquip ex ea commodo consequat. Duis aute irure dolor in reprehenderit in voluptate velit esse cillum dolore eu fugiat nulla pariatur. Excepteur sint occaecat cupidatat non proident, sunt in culpa qui officia deserunt mollit anim id est laborum Et harumd und lookum like Greek to me, dereud facilis est er expedit distinct."
    },
    "request": {
      "method": "PUT",
      "url": "DiagnosticReport/0ab8291007f01a691b1499f4ee01ececd2e1cee22737198aeabc408e4afb45bb"
    }
  } ]
}