{
  "resourceType": "Bundle",
  "id": "43d8d22e39e073fbb83f221071d60fe92e947d234ada77f7401d0eb4d230a849",
  "type": "transaction",
  "entry": [ {
    "fullUrl": "Patient/43d8d22e39e073fbb83f221071d60fe92e947d234ada77f7401d0eb4d230a849",
    "resource": {
      "resourceType": "Patient",
      "id": "43d8d22e39e073fbb83f221071d60fe92e947d234ada77f7401d0eb4d230a849",
      "meta": {
        "profile": [ "https://www.medizininformatik-initiative.de/fhir/core/modul-person/StructureDefinition/PatientPseudonymisiert" ]
      },
      "identifier": [ {
        "type": {
          "coding": [ {
            "system": "http://terminology.hl7.org/CodeSystem/v2-0203",
            "code": "MR",
            "display": "Medical record number"
          }, {
            "system": "http://terminology.hl7.org/CodeSystem/v3-ObservationValue",
            "code": "PSEUDED",
            "display": "pseudonymized"
          } ]
        },
        "system": "https://bzkf.github.io/obds-to-fhir/identifiers/patient-id",
        "value": "19"
      } ],
      "gender": "female",
      "birthDate": "1950-05-01",
      "address": [ {
        "type": "both",
        "postalCode": "12345",
        "country": "DE"
      } ]
    },
    "request": {
      "method": "PUT",
      "url": "Patient/43d8d22e39e073fbb83f221071d60fe92e947d234ada77f7401d0eb4d230a849"
    }
  }, {
    "fullUrl": "Condition/60c7c9e7ec920151bab3675602c2c7653c354b96d9b5bcdda96151fc7d6dca06",
    "resource": {
      "resourceType": "Condition",
      "id": "60c7c9e7ec920151bab3675602c2c7653c354b96d9b5bcdda96151fc7d6dca06",
      "meta": {
        "profile": [ "https://www.medizininformatik-initiative.de/fhir/ext/modul-onko/StructureDefinition/mii-pr-onko-diagnose-primaertumor" ],
        "tag": [ {
          "system": "http://snomed.info/sct",
          "version": "http://snomed.info/sct/900000000000207008/version/20250501",
          "code": "255599008",
          "display": "Incomplete (qualifier value)"
        } ]
      },
      "extension": [ {
        "url": "https://www.medizininformatik-initiative.de/fhir/ext/modul-onko/StructureDefinition/mii-ex-onko-histology-morphology-behavior-icdo3",
        "valueCodeableConcept": {
          "coding": [ {
            "system": "http://terminology.hl7.org/CodeSystem/icd-o-3",
            "version": "33",
            "code": "8077/2"
          } ]
        }
      }, {
        "url": "http://hl7.org/fhir/StructureDefinition/condition-assertedDate",
        "valueDateTime": "2022-10-02"
      } ],
      "identifier": [ {
        "system": "https://bzkf.github.io/obds-to-fhir/identifiers/primaerdiagnose-condition-id",
        "value": "19-195"
      } ],
      "code": {
        "coding": [ {
          "system": "http://fhir.de/CodeSystem/bfarm/icd-10-gm",
          "version": "2022",
          "code": "D06.9"
        } ]
      },
      "bodySite": [ {
        "coding": [ {
          "system": "https://www.medizininformatik-initiative.de/fhir/ext/modul-onko/CodeSystem/mii-cs-onko-seitenlokalisation",
          "code": "T"
        }, {
          "system": "http://snomed.info/sct",
          "version": "http://snomed.info/sct/900000000000207008/version/20250501",
          "code": "385432009",
          "display": "Not applicable (qualifier value)"
        } ]
      } ],
      "subject": {
        "reference": "Patient/43d8d22e39e073fbb83f221071d60fe92e947d234ada77f7401d0eb4d230a849"
      },
      "recordedDate": "2024-04-22"
    },
    "request": {
      "method": "PUT",
      "url": "Condition/60c7c9e7ec920151bab3675602c2c7653c354b96d9b5bcdda96151fc7d6dca06"
    }
  }, {
    "fullUrl": "Procedure/b959560fd8a22e9c0e1d8c9d6a21ef8804bd273557c7e48668210f106ecf285d",
    "resource": {
      "resourceType": "Procedure",
      "id": "b959560fd8a22e9c0e1d8c9d6a21ef8804bd273557c7e48668210f106ecf285d",
      "meta": {
        "profile": [ "https://www.medizininformatik-initiative.de/fhir/ext/modul-onko/StructureDefinition/mii-pr-onko-operation" ]
      },
      "extension": [ {
        "url": "https://www.medizininformatik-initiative.de/fhir/ext/modul-onko/StructureDefinition/mii-ex-onko-operation-intention",
        "valueCodeableConcept": {
          "coding": [ {
            "system": "https://www.medizininformatik-initiative.de/fhir/ext/modul-onko/CodeSystem/mii-cs-onko-intention",
            "code": "K"
          } ]
        }
      } ],
      "identifier": [ {
        "system": "https://bzkf.github.io/obds-to-fhir/identifiers/operation-procedure-id",
        "value": "30-5-671-01"
      } ],
      "status": "completed",
      "category": {
        "coding": [ {
          "system": "http://snomed.info/sct",
          "version": "http://snomed.info/sct/900000000000207008/version/20250501",
          "code": "387713003",
          "display": "Surgical procedure"
        } ]
      },
      "code": {
        "coding": [ {
          "system": "http://fhir.de/CodeSystem/bfarm/ops",
          "version": "2022",
          "code": "5-671.01"
        } ]
      },
      "subject": {
        "reference": "Patient/43d8d22e39e073fbb83f221071d60fe92e947d234ada77f7401d0eb4d230a849"
      },
      "performedDateTime": "2022-10-16",
      "reasonReference": [ {
        "reference": "Condition/60c7c9e7ec920151bab3675602c2c7653c354b96d9b5bcdda96151fc7d6dca06"
      } ],
      "outcome": {
        "coding": [ {
          "system": "https://www.medizininformatik-initiative.de/fhir/ext/modul-onko/CodeSystem/mii-cs-onko-residualstatus",
          "code": "R0"
        } ]
      }
    },
    "request": {
      "method": "PUT",
      "url": "Procedure/b959560fd8a22e9c0e1d8c9d6a21ef8804bd273557c7e48668210f106ecf285d"
    }
  }, {
    "fullUrl": "Observation/c80c40e920d124817522a2344d6e5ab5a1505b0e32250d5af5c6ab5052626ee2",
    "resource": {
      "resourceType": "Observation",
      "id": "c80c40e920d124817522a2344d6e5ab5a1505b0e32250d5af5c6ab5052626ee2",
      "meta": {
        "profile": [ "https://www.medizininformatik-initiative.de/fhir/ext/modul-onko/StructureDefinition/mii-pr-onko-residualstatus" ]
      },
      "identifier": [ {
        "system": "https://bzkf.github.io/obds-to-fhir/identifiers/residualstatus-observation-id",
        "value": "30"
      } ],
      "status": "final",
      "code": {
        "coding": [ {
          "system": "http://loinc.org",
          "version": "2.80",
          "code": "84892-9",
          "display": "Residual tumor classification [Type] in Cancer specimen"
        } ]
      },
      "subject": {
        "reference": "Patient/43d8d22e39e073fbb83f221071d60fe92e947d234ada77f7401d0eb4d230a849"
      },
      "focus": [ {
        "reference": "Condition/60c7c9e7ec920151bab3675602c2c7653c354b96d9b5bcdda96151fc7d6dca06"
      } ],
      "effectiveDateTime": "2022-10-16",
      "valueCodeableConcept": {
        "coding": [ {
          "system": "https://www.medizininformatik-initiative.de/fhir/ext/modul-onko/CodeSystem/mii-cs-onko-residualstatus",
          "code": "R0"
        } ]
      }
    },
    "request": {
      "method": "PUT",
      "url": "Observation/c80c40e920d124817522a2344d6e5ab5a1505b0e32250d5af5c6ab5052626ee2"
    }
  }, {
    "fullUrl": "Specimen/8370c719943ce7684763b37c9f975428e9099c7c9f6f171a06d36c672ac61250",
    "resource": {
      "resourceType": "Specimen",
      "id": "8370c719943ce7684763b37c9f975428e9099c7c9f6f171a06d36c672ac61250",
      "meta": {
        "profile": [ "https://www.medizininformatik-initiative.de/fhir/ext/modul-onko/StructureDefinition/mii-pr-onko-specimen" ]
      },
      "identifier": [ {
        "system": "https://bzkf.github.io/obds-to-fhir/identifiers/histologie-specimen-id",
        "value": "55"
      } ],
      "accessionIdentifier": {
        "value": "X/98765/2"
      },
      "subject": {
        "reference": "Patient/43d8d22e39e073fbb83f221071d60fe92e947d234ada77f7401d0eb4d230a849"
      },
      "collection": {
        "collectedDateTime": "2022-10-16"
      }
    },
    "request": {
      "method": "PUT",
      "url": "Specimen/8370c719943ce7684763b37c9f975428e9099c7c9f6f171a06d36c672ac61250"
    }
  }, {
    "fullUrl": "Observation/f0663e04775bcb5d743cf8b670a68a87c53f24dcead5dd318253ba36efa122cb",
    "resource": {
      "resourceType": "Observation",
      "id": "f0663e04775bcb5d743cf8b670a68a87c53f24dcead5dd318253ba36efa122cb",
      "meta": {
        "profile": [ "https://www.medizininformatik-initiative.de/fhir/ext/modul-onko/StructureDefinition/mii-pr-onko-histologie-icdo3" ]
      },
      "identifier": [ {
        "system": "https://bzkf.github.io/obds-to-fhir/identifiers/verlaufshistologie-observation-id",
        "value": "55-ICDO3-8077-2"
      } ],
      "status": "final",
      "code": {
        "coding": [ {
          "system": "http://loinc.org",
          "version": "2.80",
          "code": "59847-4",
          "display": "Histology and Behavior ICD-O-3 Cancer"
        } ]
      },
      "subject": {
        "reference": "Patient/43d8d22e39e073fbb83f221071d60fe92e947d234ada77f7401d0eb4d230a849"
      },
      "focus": [ {
        "reference": "Condition/60c7c9e7ec920151bab3675602c2c7653c354b96d9b5bcdda96151fc7d6dca06"
      } ],
      "effectiveDateTime": "2022-10-16",
      "valueCodeableConcept": {
        "coding": [ {
          "system": "http://terminology.hl7.org/CodeSystem/icd-o-3",
          "version": "33",
          "code": "8077/2"
        } ],
        "text": "Zervikale intraepitheliale Neoplasie Grad 3"
      },
      "specimen": {
        "reference": "Specimen/8370c719943ce7684763b37c9f975428e9099c7c9f6f171a06d36c672ac61250"
      }
    },
    "request": {
      "method": "PUT",
      "url": "Observation/f0663e04775bcb5d743cf8b670a68a87c53f24dcead5dd318253ba36efa122cb"
    }
  }, {
    "fullUrl": "Observation/b4b6a793ca560f2b39109853ff441678890198201a8de0b4730719f5b4922293",
    "resource": {
      "resourceType": "Observation",
      "id": "b4b6a793ca560f2b39109853ff441678890198201a8de0b4730719f5b4922293",
      "meta": {
        "profile": [ "https://www.medizininformatik-initiative.de/fhir/ext/modul-onko/StructureDefinition/mii-pr-onko-grading" ]
      },
      "identifier": [ {
        "system": "https://bzkf.github.io/obds-to-fhir/identifiers/grading-observation-id",
        "value": "55-grading"
      } ],
      "status": "final",
      "category": [ {
        "coding": [ {
          "system": "http://terminology.hl7.org/CodeSystem/observation-category",
          "code": "laboratory"
        } ]
      } ],
      "code": {
        "coding": [ {
          "system": "http://loinc.org",
          "version": "2.80",
          "code": "33732-9",
          "display": "Histology grade [Identifier] in Cancer specimen"
        }, {
          "system": "http://snomed.info/sct",
          "version": "http://snomed.info/sct/900000000000207008/version/20250501",
          "code": "371469007",
          "display": "Histologic grade of neoplasm (observable entity)"
        } ]
      },
      "subject": {
        "reference": "Patient/43d8d22e39e073fbb83f221071d60fe92e947d234ada77f7401d0eb4d230a849"
      },
      "focus": [ {
        "reference": "Condition/60c7c9e7ec920151bab3675602c2c7653c354b96d9b5bcdda96151fc7d6dca06"
      } ],
      "effectiveDateTime": "2022-10-16",
      "valueCodeableConcept": {
        "coding": [ {
          "system": "https://www.medizininformatik-initiative.de/fhir/ext/modul-onko/CodeSystem/mii-cs-onko-grading",
          "code": "3"
        } ]
      },
      "specimen": {
        "reference": "Specimen/8370c719943ce7684763b37c9f975428e9099c7c9f6f171a06d36c672ac61250"
      }
    },
    "request": {
      "method": "PUT",
      "url": "Observation/b4b6a793ca560f2b39109853ff441678890198201a8de0b4730719f5b4922293"
    }
  }, {
    "fullUrl": "Observation/32b81a714c402dbb30ec2ea316b8ddbfa73c39b95651a9a3d549e317a6e39fb3",
    "resource": {
      "resourceType": "Observation",
      "id": "32b81a714c402dbb30ec2ea316b8ddbfa73c39b95651a9a3d549e317a6e39fb3",
      "meta": {
        "profile": [ "https://www.medizininformatik-initiative.de/fhir/ext/modul-onko/StructureDefinition/mii-pr-onko-tnm-t-kategorie" ]
      },
      "identifier": [ {
        "system": "https://bzkf.github.io/obds-to-fhir/identifiers/tnm-t-kategorie-observation-id",
        "value": "55-T"
      } ],
      "status": "final",
      "code": {
        "extension": [ {
          "url": "https://www.medizininformatik-initiative.de/fhir/ext/modul-onko/StructureDefinition/mii-ex-onko-tnm-cp-praefix",
          "valueCodeableConcept": {
            "coding": [ {
              "system": "https://www.uicc.org/resources/tnm",
              "code": "p"
            } ]
          }
        } ],
        "coding": [ {
          "system": "http://snomed.info/sct",
          "version": "http://snomed.info/sct/900000000000207008/version/20250501",
          "code": "384625004",
          "display": "pT category (observable entity)"
        } ]
      },
      "subject": {
        "reference": "Patient/43d8d22e39e073fbb83f221071d60fe92e947d234ada77f7401d0eb4d230a849"
      },
      "focus": [ {
        "reference": "Condition/60c7c9e7ec920151bab3675602c2c7653c354b96d9b5bcdda96151fc7d6dca06"
      } ],
      "effectiveDateTime": "2022-10-16",
      "valueCodeableConcept": {
        "coding": [ {
          "system": "https://www.uicc.org/resources/tnm",
          "code": "Tis"
        } ]
      },
      "method": {
        "coding": [ {
          "system": "https://www.medizininformatik-initiative.de/fhir/ext/modul-onko/CodeSystem/mii-cs-onko-tnm-version",
          "code": "8"
        } ]
      }
    },
    "request": {
      "method": "PUT",
      "url": "Observation/32b81a714c402dbb30ec2ea316b8ddbfa73c39b95651a9a3d549e317a6e39fb3"
    }
  }, {
    "fullUrl": "Observation/7b1e8a8a16d5fb511d719b943ef260663351317168968acdfb95c0ecc58929f4",
    "resource": {
      "resourceType": "Observation",
      "id": "7b1e8a8a16d5fb511d719b943ef260663351317168968acdfb95c0ecc58929f4",
      "meta": {
        "profile": [ "https://www.medizininformatik-initiative.de/fhir/ext/modul-onko/StructureDefinition/mii-pr-onko-tnm-klassifikation" ]
      },
      "identifier": [ {
        "system": "https://bzkf.github.io/obds-to-fhir/identifiers/tnm-grouping-observation-id",
        "value": "55"
      } ],
      "status": "final",
      "code": {
        "coding": [ {
          "system": "http://snomed.info/sct",
          "version": "http://snomed.info/sct/900000000000207008/version/20250501",
          "code": "399390009",
          "display": "TNM stage grouping"
        } ]
      },
      "subject": {
        "reference": "Patient/43d8d22e39e073fbb83f221071d60fe92e947d234ada77f7401d0eb4d230a849"
      },
      "focus": [ {
        "reference": "Condition/60c7c9e7ec920151bab3675602c2c7653c354b96d9b5bcdda96151fc7d6dca06"
      } ],
      "effectiveDateTime": "2022-10-16",
      "valueCodeableConcept": {
        "coding": [ {
          "system": "https://www.uicc.org/resources/tnm",
          "code": "0",
          "display": "Stadium 0"
        } ]
      },
      "method": {
        "coding": [ {
          "system": "https://www.medizininformatik-initiative.de/fhir/ext/modul-onko/CodeSystem/mii-cs-onko-tnm-version",
          "code": "8"
        } ]
      },
      "hasMember": [ {
        "reference": "Observation/32b81a714c402dbb30ec2ea316b8ddbfa73c39b95651a9a3d549e317a6e39fb3"
      } ]
    },
    "request": {
      "method": "PUT",
      "url": "Observation/7b1e8a8a16d5fb511d719b943ef260663351317168968acdfb95c0ecc58929f4"
    }
  } ]
}