{
  "resourceType": "Bundle",
  "id": "3919f05c9c061487bab3c8f0c50212061d29d4a31d6709c14955d3e551f9ab6d",
  "type": "transaction",
  "entry": [ {
    "fullUrl": "Patient/3919f05c9c061487bab3c8f0c50212061d29d4a31d6709c14955d3e551f9ab6d",
    "resource": {
      "resourceType": "Patient",
      "id": "3919f05c9c061487bab3c8f0c50212061d29d4a31d6709c14955d3e551f9ab6d",
      "meta": {
        "profile": [ "https://www.medizininformatik-initiative.de/fhir/core/modul-person/StructureDefinition/PatientPseudonymisiert" ]
      },
      "identifier": [ {
        "type": {
          "coding": [ {
            "system": "http://terminology.hl7.org/CodeSystem/v2-0203",
            "code": "MR",
            "display": "Medical record number"
          }, {
            "system": "http://terminology.hl7.org/CodeSystem/v3-ObservationValue",
            "code": "PSEUDED",
            "display": "pseudonymized"
          } ]
        },
        "system": "https://bzkf.github.io/obds-to-fhir/identifiers/patient-id",
        "value": "9876543"
      } ],
      "gender": "female",
      "birthDate": "1960-01-16",
      "address": [ {
        "type": "both",
        "postalCode": "12345",
        "country": "DE"
      } ]
    },
    "request": {
      "method": "PUT",
      "url": "Patient/3919f05c9c061487bab3c8f0c50212061d29d4a31d6709c14955d3e551f9ab6d"
    }
  }, {
    "fullUrl": "Condition/c2935c32db1b60a23befcb37fa4d1dd87ba73b03622a88f40adcae741e3ae4e5",
    "resource": {
      "resourceType": "Condition",
      "id": "c2935c32db1b60a23befcb37fa4d1dd87ba73b03622a88f40adcae741e3ae4e5",
      "meta": {
        "profile": [ "https://www.medizininformatik-initiative.de/fhir/ext/modul-onko/StructureDefinition/mii-pr-onko-diagnose-primaertumor" ]
      },
      "extension": [ {
        "url": "https://www.medizininformatik-initiative.de/fhir/ext/modul-onko/StructureDefinition/mii-ex-onko-histology-morphology-behavior-icdo3",
        "valueCodeableConcept": {
          "coding": [ {
            "system": "http://terminology.hl7.org/CodeSystem/icd-o-3",
            "version": "33",
            "code": "8720/3"
          } ]
        }
      }, {
        "url": "https://www.medizininformatik-initiative.de/fhir/ext/modul-onko/StructureDefinition/mii-ex-onko-histology-morphology-behavior-icdo3",
        "valueCodeableConcept": {
          "coding": [ {
            "system": "http://terminology.hl7.org/CodeSystem/icd-o-3",
            "version": "33",
            "code": "8720/2"
          } ]
        }
      }, {
        "url": "http://hl7.org/fhir/StructureDefinition/condition-assertedDate",
        "valueDateTime": "2023-10-11"
      } ],
      "identifier": [ {
        "system": "https://bzkf.github.io/obds-to-fhir/identifiers/primaerdiagnose-condition-id",
        "value": "9876543-1"
      } ],
      "verificationStatus": {
        "coding": [ {
          "system": "http://terminology.hl7.org/CodeSystem/condition-ver-status",
          "code": "confirmed"
        }, {
          "system": "https://www.medizininformatik-initiative.de/fhir/ext/modul-onko/CodeSystem/mii-cs-onko-primaertumor-diagnosesicherung",
          "code": "7"
        } ]
      },
      "code": {
        "coding": [ {
          "system": "http://fhir.de/CodeSystem/bfarm/icd-10-gm",
          "version": "2023",
          "code": "C43.5"
        } ]
      },
      "bodySite": [ {
        "coding": [ {
          "system": "http://terminology.hl7.org/CodeSystem/icd-o-3",
          "version": "33",
          "code": "C44.9"
        } ],
        "text": "Vulva"
      }, {
        "coding": [ {
          "system": "https://www.medizininformatik-initiative.de/fhir/ext/modul-onko/CodeSystem/mii-cs-onko-seitenlokalisation",
          "code": "T"
        }, {
          "system": "http://snomed.info/sct",
          "version": "http://snomed.info/sct/900000000000207008/version/20250501",
          "code": "385432009",
          "display": "Not applicable (qualifier value)"
        } ]
      } ],
      "subject": {
        "reference": "Patient/3919f05c9c061487bab3c8f0c50212061d29d4a31d6709c14955d3e551f9ab6d"
      },
      "recordedDate": "2024-11-30",
      "evidence": [ {
        "detail": [ {
          "reference": "List/fd0104c122547eac7ebccfdfc69292eb81e23a3eb29221c9f186e8fd3d3480e8"
        } ]
      } ]
    },
    "request": {
      "method": "PUT",
      "url": "Condition/c2935c32db1b60a23befcb37fa4d1dd87ba73b03622a88f40adcae741e3ae4e5"
    }
  }, {
    "fullUrl": "Observation/ce89cda0a0fb5263cfecc47a1a54c58b616e282f4b80c19cc8fde3b60b5ea9d5",
    "resource": {
      "resourceType": "Observation",
      "id": "ce89cda0a0fb5263cfecc47a1a54c58b616e282f4b80c19cc8fde3b60b5ea9d5",
      "meta": {
        "profile": [ "https://www.medizininformatik-initiative.de/fhir/ext/modul-onko/StructureDefinition/mii-pr-onko-allgemeiner-leistungszustand-ecog" ]
      },
      "identifier": [ {
        "system": "https://bzkf.github.io/obds-to-fhir/identifiers/allgemeiner-leistungszustand-ecog-id",
        "value": "ECOG-2103B5C5-123123-12312"
      } ],
      "status": "final",
      "code": {
        "coding": [ {
          "system": "http://snomed.info/sct",
          "version": "http://snomed.info/sct/900000000000207008/version/20250501",
          "code": "423740007",
          "display": "Eastern Cooperative Oncology Group performance status (observable entity)"
        } ]
      },
      "subject": {
        "reference": "Patient/3919f05c9c061487bab3c8f0c50212061d29d4a31d6709c14955d3e551f9ab6d"
      },
      "focus": [ {
        "reference": "Condition/c2935c32db1b60a23befcb37fa4d1dd87ba73b03622a88f40adcae741e3ae4e5"
      } ],
      "effectiveDateTime": "2023-10-11",
      "valueCodeableConcept": {
        "coding": [ {
          "system": "https://www.medizininformatik-initiative.de/fhir/ext/modul-onko/CodeSystem/mii-cs-onko-allgemeiner-leistungszustand-ecog",
          "code": "U",
          "display": "Unbekannt"
        } ]
      }
    },
    "request": {
      "method": "PUT",
      "url": "Observation/ce89cda0a0fb5263cfecc47a1a54c58b616e282f4b80c19cc8fde3b60b5ea9d5"
    }
  }, {
    "fullUrl": "Specimen/da59f7fcad20202cffb0bdb41c3b3555707b6cab1692b09d7a4ccbc5d4d8d918",
    "resource": {
      "resourceType": "Specimen",
      "id": "da59f7fcad20202cffb0bdb41c3b3555707b6cab1692b09d7a4ccbc5d4d8d918",
      "meta": {
        "profile": [ "https://www.medizininformatik-initiative.de/fhir/ext/modul-onko/StructureDefinition/mii-pr-onko-specimen" ]
      },
      "identifier": [ {
        "system": "https://bzkf.github.io/obds-to-fhir/identifiers/histologie-specimen-id",
        "value": "2103B5C5-123123-12312"
      } ],
      "subject": {
        "reference": "Patient/3919f05c9c061487bab3c8f0c50212061d29d4a31d6709c14955d3e551f9ab6d"
      }
    },
    "request": {
      "method": "PUT",
      "url": "Specimen/da59f7fcad20202cffb0bdb41c3b3555707b6cab1692b09d7a4ccbc5d4d8d918"
    }
  }, {
    "fullUrl": "Observation/70767873f6bd1815e3f411b0acfe134ea3823452f4b12d2102c6b12f9bfb524a",
    "resource": {
      "resourceType": "Observation",
      "id": "70767873f6bd1815e3f411b0acfe134ea3823452f4b12d2102c6b12f9bfb524a",
      "meta": {
        "profile": [ "https://www.medizininformatik-initiative.de/fhir/ext/modul-onko/StructureDefinition/mii-pr-onko-grading" ]
      },
      "identifier": [ {
        "system": "https://bzkf.github.io/obds-to-fhir/identifiers/grading-observation-id",
        "value": "2103B5C5-123123-12312-grading"
      } ],
      "status": "final",
      "category": [ {
        "coding": [ {
          "system": "http://terminology.hl7.org/CodeSystem/observation-category",
          "code": "laboratory"
        } ]
      } ],
      "code": {
        "coding": [ {
          "system": "http://loinc.org",
          "version": "2.80",
          "code": "33732-9",
          "display": "Histology grade [Identifier] in Cancer specimen"
        }, {
          "system": "http://snomed.info/sct",
          "version": "http://snomed.info/sct/900000000000207008/version/20250501",
          "code": "371469007",
          "display": "Histologic grade of neoplasm (observable entity)"
        } ]
      },
      "subject": {
        "reference": "Patient/3919f05c9c061487bab3c8f0c50212061d29d4a31d6709c14955d3e551f9ab6d"
      },
      "focus": [ {
        "reference": "Condition/c2935c32db1b60a23befcb37fa4d1dd87ba73b03622a88f40adcae741e3ae4e5"
      } ],
      "_effectiveDateTime": {
        "extension": [ {
          "url": "http://hl7.org/fhir/StructureDefinition/data-absent-reason",
          "valueCode": "unknown"
        } ]
      },
      "valueCodeableConcept": {
        "coding": [ {
          "system": "https://www.medizininformatik-initiative.de/fhir/ext/modul-onko/CodeSystem/mii-cs-onko-grading",
          "code": "U"
        } ]
      },
      "specimen": {
        "reference": "Specimen/da59f7fcad20202cffb0bdb41c3b3555707b6cab1692b09d7a4ccbc5d4d8d918"
      }
    },
    "request": {
      "method": "PUT",
      "url": "Observation/70767873f6bd1815e3f411b0acfe134ea3823452f4b12d2102c6b12f9bfb524a"
    }
  }, {
    "fullUrl": "Observation/81aa21e943a0913fcc074037bf9ab6ded3cce7094740f09c39827a0ae2ee8e1e",
    "resource": {
      "resourceType": "Observation",
      "id": "81aa21e943a0913fcc074037bf9ab6ded3cce7094740f09c39827a0ae2ee8e1e",
      "meta": {
        "profile": [ "https://www.medizininformatik-initiative.de/fhir/ext/modul-onko/StructureDefinition/mii-pr-onko-studienteilnahme" ]
      },
      "identifier": [ {
        "system": "https://bzkf.github.io/obds-to-fhir/identifiers/studienteilnahme-observation-id",
        "value": "2103B5C5-123123-12312-Studienteilnahme"
      } ],
      "status": "final",
      "code": {
        "coding": [ {
          "system": "http://snomed.info/sct",
          "version": "http://snomed.info/sct/900000000000207008/version/20250501",
          "code": "709491003",
          "display": "Enrollment in clinical trial (procedure)"
        } ]
      },
      "subject": {
        "reference": "Patient/3919f05c9c061487bab3c8f0c50212061d29d4a31d6709c14955d3e551f9ab6d"
      },
      "focus": [ {
        "reference": "Condition/c2935c32db1b60a23befcb37fa4d1dd87ba73b03622a88f40adcae741e3ae4e5"
      } ],
      "valueCodeableConcept": {
        "coding": [ {
          "system": "https://www.medizininformatik-initiative.de/fhir/ext/modul-onko/CodeSystem/mii-cs-onko-studienteilnahme",
          "code": "N"
        } ]
      }
    },
    "request": {
      "method": "PUT",
      "url": "Observation/81aa21e943a0913fcc074037bf9ab6ded3cce7094740f09c39827a0ae2ee8e1e"
    }
  }, {
    "fullUrl": "Observation/347e00d8664ab61211b69738ddae09e4ba6315adff7e67dde891bf3f3c2fd276",
    "resource": {
      "resourceType": "Observation",
      "id": "347e00d8664ab61211b69738ddae09e4ba6315adff7e67dde891bf3f3c2fd276",
      "meta": {
        "profile": [ "https://www.medizininformatik-initiative.de/fhir/ext/modul-onko/StructureDefinition/mii-pr-onko-tnm-t-kategorie" ]
      },
      "identifier": [ {
        "system": "https://bzkf.github.io/obds-to-fhir/identifiers/tnm-t-kategorie-observation-id",
        "value": "4444888c-c-2024-02-09-T"
      } ],
      "status": "final",
      "code": {
        "extension": [ {
          "url": "https://www.medizininformatik-initiative.de/fhir/ext/modul-onko/StructureDefinition/mii-ex-onko-tnm-cp-praefix",
          "valueCodeableConcept": {
            "coding": [ {
              "system": "https://www.uicc.org/resources/tnm",
              "code": "p"
            } ]
          }
        } ],
        "coding": [ {
          "system": "http://snomed.info/sct",
          "version": "http://snomed.info/sct/900000000000207008/version/20250501",
          "code": "384625004",
          "display": "pT category (observable entity)"
        } ]
      },
      "subject": {
        "reference": "Patient/3919f05c9c061487bab3c8f0c50212061d29d4a31d6709c14955d3e551f9ab6d"
      },
      "focus": [ {
        "reference": "Condition/c2935c32db1b60a23befcb37fa4d1dd87ba73b03622a88f40adcae741e3ae4e5"
      } ],
      "effectiveDateTime": "2024-02-09",
      "valueCodeableConcept": {
        "coding": [ {
          "system": "https://www.uicc.org/resources/tnm",
          "code": "T2b"
        } ]
      },
      "method": {
        "coding": [ {
          "system": "https://www.medizininformatik-initiative.de/fhir/ext/modul-onko/CodeSystem/mii-cs-onko-tnm-version",
          "code": "8"
        } ]
      }
    },
    "request": {
      "method": "PUT",
      "url": "Observation/347e00d8664ab61211b69738ddae09e4ba6315adff7e67dde891bf3f3c2fd276"
    }
  }, {
    "fullUrl": "Observation/5d124c817dcc2a5dc5877a763f36d16bcf584097b160a5bd7afeb814328cc1cf",
    "resource": {
      "resourceType": "Observation",
      "id": "5d124c817dcc2a5dc5877a763f36d16bcf584097b160a5bd7afeb814328cc1cf",
      "meta": {
        "profile": [ "https://www.medizininformatik-initiative.de/fhir/ext/modul-onko/StructureDefinition/mii-pr-onko-tnm-n-kategorie" ]
      },
      "identifier": [ {
        "system": "https://bzkf.github.io/obds-to-fhir/identifiers/tnm-n-kategorie-observation-id",
        "value": "4444888c-c-2024-02-09-N"
      } ],
      "status": "final",
      "code": {
        "extension": [ {
          "url": "https://www.medizininformatik-initiative.de/fhir/ext/modul-onko/StructureDefinition/mii-ex-onko-tnm-cp-praefix",
          "valueCodeableConcept": {
            "coding": [ {
              "system": "https://www.uicc.org/resources/tnm",
              "code": "p"
            } ]
          }
        } ],
        "coding": [ {
          "system": "http://snomed.info/sct",
          "version": "http://snomed.info/sct/900000000000207008/version/20250501",
          "code": "371494008",
          "display": "pN category (observable entity)"
        } ]
      },
      "subject": {
        "reference": "Patient/3919f05c9c061487bab3c8f0c50212061d29d4a31d6709c14955d3e551f9ab6d"
      },
      "focus": [ {
        "reference": "Condition/c2935c32db1b60a23befcb37fa4d1dd87ba73b03622a88f40adcae741e3ae4e5"
      } ],
      "effectiveDateTime": "2024-02-09",
      "valueCodeableConcept": {
        "coding": [ {
          "system": "https://www.uicc.org/resources/tnm",
          "code": "N1b"
        } ]
      },
      "method": {
        "coding": [ {
          "system": "https://www.medizininformatik-initiative.de/fhir/ext/modul-onko/CodeSystem/mii-cs-onko-tnm-version",
          "code": "8"
        } ]
      }
    },
    "request": {
      "method": "PUT",
      "url": "Observation/5d124c817dcc2a5dc5877a763f36d16bcf584097b160a5bd7afeb814328cc1cf"
    }
  }, {
    "fullUrl": "Observation/5d1021e1f9f27e9eb5d3a2b7643b266d7d2e24da427ecc69973aa16b6e60e8e7",
    "resource": {
      "resourceType": "Observation",
      "id": "5d1021e1f9f27e9eb5d3a2b7643b266d7d2e24da427ecc69973aa16b6e60e8e7",
      "meta": {
        "profile": [ "https://www.medizininformatik-initiative.de/fhir/ext/modul-onko/StructureDefinition/mii-pr-onko-tnm-m-kategorie" ]
      },
      "identifier": [ {
        "system": "https://bzkf.github.io/obds-to-fhir/identifiers/tnm-m-kategorie-observation-id",
        "value": "4444888c-c-2024-02-09-M"
      } ],
      "status": "final",
      "code": {
        "extension": [ {
          "url": "https://www.medizininformatik-initiative.de/fhir/ext/modul-onko/StructureDefinition/mii-ex-onko-tnm-cp-praefix",
          "valueCodeableConcept": {
            "coding": [ {
              "system": "https://www.uicc.org/resources/tnm",
              "code": "p"
            } ]
          }
        } ],
        "coding": [ {
          "system": "http://snomed.info/sct",
          "version": "http://snomed.info/sct/900000000000207008/version/20250501",
          "code": "371497001",
          "display": "pM category (observable entity)"
        } ]
      },
      "subject": {
        "reference": "Patient/3919f05c9c061487bab3c8f0c50212061d29d4a31d6709c14955d3e551f9ab6d"
      },
      "focus": [ {
        "reference": "Condition/c2935c32db1b60a23befcb37fa4d1dd87ba73b03622a88f40adcae741e3ae4e5"
      } ],
      "effectiveDateTime": "2024-02-09",
      "valueCodeableConcept": {
        "coding": [ {
          "system": "https://www.uicc.org/resources/tnm",
          "code": "M1b"
        } ]
      },
      "method": {
        "coding": [ {
          "system": "https://www.medizininformatik-initiative.de/fhir/ext/modul-onko/CodeSystem/mii-cs-onko-tnm-version",
          "code": "8"
        } ]
      }
    },
    "request": {
      "method": "PUT",
      "url": "Observation/5d1021e1f9f27e9eb5d3a2b7643b266d7d2e24da427ecc69973aa16b6e60e8e7"
    }
  }, {
    "fullUrl": "Observation/25009a7aeea24ea620279b9e79fb873e7846aeea1a445d6a8ea333d571950612",
    "resource": {
      "resourceType": "Observation",
      "id": "25009a7aeea24ea620279b9e79fb873e7846aeea1a445d6a8ea333d571950612",
      "meta": {
        "profile": [ "https://www.medizininformatik-initiative.de/fhir/ext/modul-onko/StructureDefinition/mii-pr-onko-tnm-klassifikation" ]
      },
      "identifier": [ {
        "system": "https://bzkf.github.io/obds-to-fhir/identifiers/tnm-grouping-observation-id",
        "value": "4444888c-c-2024-02-09"
      } ],
      "status": "final",
      "code": {
        "coding": [ {
          "system": "http://snomed.info/sct",
          "version": "http://snomed.info/sct/900000000000207008/version/20250501",
          "code": "399537006",
          "display": "Clinical TNM stage grouping"
        } ]
      },
      "subject": {
        "reference": "Patient/3919f05c9c061487bab3c8f0c50212061d29d4a31d6709c14955d3e551f9ab6d"
      },
      "focus": [ {
        "reference": "Condition/c2935c32db1b60a23befcb37fa4d1dd87ba73b03622a88f40adcae741e3ae4e5"
      } ],
      "effectiveDateTime": "2024-02-09",
      "method": {
        "coding": [ {
          "system": "https://www.medizininformatik-initiative.de/fhir/ext/modul-onko/CodeSystem/mii-cs-onko-tnm-version",
          "code": "8"
        } ]
      },
      "hasMember": [ {
        "reference": "Observation/347e00d8664ab61211b69738ddae09e4ba6315adff7e67dde891bf3f3c2fd276"
      }, {
        "reference": "Observation/5d124c817dcc2a5dc5877a763f36d16bcf584097b160a5bd7afeb814328cc1cf"
      }, {
        "reference": "Observation/5d1021e1f9f27e9eb5d3a2b7643b266d7d2e24da427ecc69973aa16b6e60e8e7"
      } ]
    },
    "request": {
      "method": "PUT",
      "url": "Observation/25009a7aeea24ea620279b9e79fb873e7846aeea1a445d6a8ea333d571950612"
    }
  }, {
    "fullUrl": "Observation/c8be5393c6a8a85ab926a5af2015adaf6e85c08e2388e4a665e0d8233a00397c",
    "resource": {
      "resourceType": "Observation",
      "id": "c8be5393c6a8a85ab926a5af2015adaf6e85c08e2388e4a665e0d8233a00397c",
      "meta": {
        "profile": [ "https://www.medizininformatik-initiative.de/fhir/ext/modul-onko/StructureDefinition/mii-pr-onko-tnm-t-kategorie" ]
      },
      "identifier": [ {
        "system": "https://bzkf.github.io/obds-to-fhir/identifiers/tnm-t-kategorie-observation-id",
        "value": "5555555-p-2023-10-11-T"
      } ],
      "status": "final",
      "code": {
        "extension": [ {
          "url": "https://www.medizininformatik-initiative.de/fhir/ext/modul-onko/StructureDefinition/mii-ex-onko-tnm-cp-praefix",
          "valueCodeableConcept": {
            "coding": [ {
              "system": "https://www.uicc.org/resources/tnm",
              "code": "p"
            } ]
          }
        } ],
        "coding": [ {
          "system": "http://snomed.info/sct",
          "version": "http://snomed.info/sct/900000000000207008/version/20250501",
          "code": "384625004",
          "display": "pT category (observable entity)"
        } ]
      },
      "subject": {
        "reference": "Patient/3919f05c9c061487bab3c8f0c50212061d29d4a31d6709c14955d3e551f9ab6d"
      },
      "focus": [ {
        "reference": "Condition/c2935c32db1b60a23befcb37fa4d1dd87ba73b03622a88f40adcae741e3ae4e5"
      } ],
      "effectiveDateTime": "2023-10-11",
      "valueCodeableConcept": {
        "coding": [ {
          "system": "https://www.uicc.org/resources/tnm",
          "code": "Tis"
        } ]
      },
      "method": {
        "coding": [ {
          "system": "https://www.medizininformatik-initiative.de/fhir/ext/modul-onko/CodeSystem/mii-cs-onko-tnm-version",
          "code": "8"
        } ]
      }
    },
    "request": {
      "method": "PUT",
      "url": "Observation/c8be5393c6a8a85ab926a5af2015adaf6e85c08e2388e4a665e0d8233a00397c"
    }
  }, {
    "fullUrl": "Observation/82ff231c74488958087efa9d8a2f41bbff820f380b984a5975302ebe6cdfadc7",
    "resource": {
      "resourceType": "Observation",
      "id": "82ff231c74488958087efa9d8a2f41bbff820f380b984a5975302ebe6cdfadc7",
      "meta": {
        "profile": [ "https://www.medizininformatik-initiative.de/fhir/ext/modul-onko/StructureDefinition/mii-pr-onko-tnm-klassifikation" ]
      },
      "identifier": [ {
        "system": "https://bzkf.github.io/obds-to-fhir/identifiers/tnm-grouping-observation-id",
        "value": "5555555-p-2023-10-11"
      } ],
      "status": "final",
      "code": {
        "coding": [ {
          "system": "http://snomed.info/sct",
          "version": "http://snomed.info/sct/900000000000207008/version/20250501",
          "code": "399588009",
          "display": "Pathologic TNM stage grouping"
        } ]
      },
      "subject": {
        "reference": "Patient/3919f05c9c061487bab3c8f0c50212061d29d4a31d6709c14955d3e551f9ab6d"
      },
      "focus": [ {
        "reference": "Condition/c2935c32db1b60a23befcb37fa4d1dd87ba73b03622a88f40adcae741e3ae4e5"
      } ],
      "effectiveDateTime": "2023-10-11",
      "method": {
        "coding": [ {
          "system": "https://www.medizininformatik-initiative.de/fhir/ext/modul-onko/CodeSystem/mii-cs-onko-tnm-version",
          "code": "8"
        } ]
      },
      "hasMember": [ {
        "reference": "Observation/c8be5393c6a8a85ab926a5af2015adaf6e85c08e2388e4a665e0d8233a00397c"
      } ]
    },
    "request": {
      "method": "PUT",
      "url": "Observation/82ff231c74488958087efa9d8a2f41bbff820f380b984a5975302ebe6cdfadc7"
    }
  }, {
    "fullUrl": "Observation/3ad4c2254b6c6c999269ac1ded4437129dd36cd0238761da9827664610c49429",
    "resource": {
      "resourceType": "Observation",
      "id": "3ad4c2254b6c6c999269ac1ded4437129dd36cd0238761da9827664610c49429",
      "meta": {
        "profile": [ "https://www.medizininformatik-initiative.de/fhir/ext/modul-onko/StructureDefinition/mii-pr-onko-weitere-klassifikationen" ]
      },
      "identifier": [ {
        "system": "https://bzkf.github.io/obds-to-fhir/identifiers/weitere-klassifikation-observation-id",
        "value": "2103B5C5-123123-12312-AJCC-2023-12-09"
      } ],
      "status": "final",
      "code": {
        "text": "AJCC"
      },
      "subject": {
        "reference": "Patient/3919f05c9c061487bab3c8f0c50212061d29d4a31d6709c14955d3e551f9ab6d"
      },
      "focus": [ {
        "reference": "Condition/c2935c32db1b60a23befcb37fa4d1dd87ba73b03622a88f40adcae741e3ae4e5"
      } ],
      "effectiveDateTime": "2023-12-09",
      "valueCodeableConcept": {
        "coding": [ {
          "code": "IV"
        } ]
      }
    },
    "request": {
      "method": "PUT",
      "url": "Observation/3ad4c2254b6c6c999269ac1ded4437129dd36cd0238761da9827664610c49429"
    }
  }, {
    "fullUrl": "List/fd0104c122547eac7ebccfdfc69292eb81e23a3eb29221c9f186e8fd3d3480e8",
    "resource": {
      "resourceType": "List",
      "id": "fd0104c122547eac7ebccfdfc69292eb81e23a3eb29221c9f186e8fd3d3480e8",
      "meta": {
        "profile": [ "https://www.medizininformatik-initiative.de/fhir/ext/modul-onko/StructureDefinition/mii-pr-onko-liste-evidenz-erstdiagnose" ]
      },
      "identifier": [ {
        "system": "https://bzkf.github.io/obds-to-fhir/identifiers/erstdiagnose-evidenz-list-id",
        "value": "9876543-1"
      } ],
      "status": "current",
      "mode": "snapshot",
      "title": "Liste der Evidenz zum Erstdiagnosezeitpunkt",
      "subject": {
        "reference": "Patient/3919f05c9c061487bab3c8f0c50212061d29d4a31d6709c14955d3e551f9ab6d"
      },
      "entry": [ {
        "item": {
          "reference": "Observation/ce89cda0a0fb5263cfecc47a1a54c58b616e282f4b80c19cc8fde3b60b5ea9d5"
        }
      }, {
        "item": {
          "reference": "Observation/70767873f6bd1815e3f411b0acfe134ea3823452f4b12d2102c6b12f9bfb524a"
        }
      }, {
        "item": {
          "reference": "Observation/81aa21e943a0913fcc074037bf9ab6ded3cce7094740f09c39827a0ae2ee8e1e"
        }
      }, {
        "item": {
          "reference": "Observation/347e00d8664ab61211b69738ddae09e4ba6315adff7e67dde891bf3f3c2fd276"
        }
      }, {
        "item": {
          "reference": "Observation/5d124c817dcc2a5dc5877a763f36d16bcf584097b160a5bd7afeb814328cc1cf"
        }
      }, {
        "item": {
          "reference": "Observation/5d1021e1f9f27e9eb5d3a2b7643b266d7d2e24da427ecc69973aa16b6e60e8e7"
        }
      }, {
        "item": {
          "reference": "Observation/25009a7aeea24ea620279b9e79fb873e7846aeea1a445d6a8ea333d571950612"
        }
      }, {
        "item": {
          "reference": "Observation/c8be5393c6a8a85ab926a5af2015adaf6e85c08e2388e4a665e0d8233a00397c"
        }
      }, {
        "item": {
          "reference": "Observation/82ff231c74488958087efa9d8a2f41bbff820f380b984a5975302ebe6cdfadc7"
        }
      }, {
        "item": {
          "reference": "Observation/3ad4c2254b6c6c999269ac1ded4437129dd36cd0238761da9827664610c49429"
        }
      } ]
    },
    "request": {
      "method": "PUT",
      "url": "List/fd0104c122547eac7ebccfdfc69292eb81e23a3eb29221c9f186e8fd3d3480e8"
    }
  } ]
}