{
  "resourceType": "Bundle",
  "id": "1f3cbe89f02e77981b92928db4f8522ddd4be1d8d14a243e7fcc9834a0d35575",
  "type": "transaction",
  "entry": [ {
    "fullUrl": "Patient/1f3cbe89f02e77981b92928db4f8522ddd4be1d8d14a243e7fcc9834a0d35575",
    "resource": {
      "resourceType": "Patient",
      "id": "1f3cbe89f02e77981b92928db4f8522ddd4be1d8d14a243e7fcc9834a0d35575",
      "meta": {
        "profile": [ "https://www.medizininformatik-initiative.de/fhir/core/modul-person/StructureDefinition/PatientPseudonymisiert" ]
      },
      "identifier": [ {
        "type": {
          "coding": [ {
            "system": "http://terminology.hl7.org/CodeSystem/v2-0203",
            "code": "MR",
            "display": "Medical record number"
          }, {
            "system": "http://terminology.hl7.org/CodeSystem/v3-ObservationValue",
            "code": "PSEUDED",
            "display": "pseudonymized"
          } ]
        },
        "system": "https://bzkf.github.io/obds-to-fhir/identifiers/patient-id",
        "value": "41"
      } ],
      "gender": "male",
      "birthDate": "1980-01-02",
      "address": [ {
        "type": "both",
        "postalCode": "98765",
        "country": "DE"
      } ]
    },
    "request": {
      "method": "PUT",
      "url": "Patient/1f3cbe89f02e77981b92928db4f8522ddd4be1d8d14a243e7fcc9834a0d35575"
    }
  }, {
    "fullUrl": "Condition/2092b4ae69451736986774ede97f1b85c9592e9176bd094c0f499ea197af582c",
    "resource": {
      "resourceType": "Condition",
      "id": "2092b4ae69451736986774ede97f1b85c9592e9176bd094c0f499ea197af582c",
      "meta": {
        "profile": [ "https://www.medizininformatik-initiative.de/fhir/ext/modul-onko/StructureDefinition/mii-pr-onko-diagnose-primaertumor" ],
        "tag": [ {
          "system": "http://snomed.info/sct",
          "version": "http://snomed.info/sct/900000000000207008/version/20250501",
          "code": "255599008",
          "display": "Incomplete (qualifier value)"
        } ]
      },
      "extension": [ {
        "url": "https://www.medizininformatik-initiative.de/fhir/ext/modul-onko/StructureDefinition/mii-ex-onko-histology-morphology-behavior-icdo3",
        "valueCodeableConcept": {
          "coding": [ {
            "system": "http://terminology.hl7.org/CodeSystem/icd-o-3",
            "version": "33",
            "code": "8140/3"
          } ]
        }
      }, {
        "url": "http://hl7.org/fhir/StructureDefinition/condition-assertedDate",
        "valueDateTime": "2021-07-08"
      } ],
      "identifier": [ {
        "system": "https://bzkf.github.io/obds-to-fhir/identifiers/primaerdiagnose-condition-id",
        "value": "41-411"
      } ],
      "code": {
        "coding": [ {
          "system": "http://fhir.de/CodeSystem/bfarm/icd-10-gm",
          "version": "2021",
          "code": "C61"
        } ]
      },
      "bodySite": [ {
        "coding": [ {
          "system": "https://www.medizininformatik-initiative.de/fhir/ext/modul-onko/CodeSystem/mii-cs-onko-seitenlokalisation",
          "code": "T"
        }, {
          "system": "http://snomed.info/sct",
          "version": "http://snomed.info/sct/900000000000207008/version/20250501",
          "code": "385432009",
          "display": "Not applicable (qualifier value)"
        } ]
      } ],
      "subject": {
        "reference": "Patient/1f3cbe89f02e77981b92928db4f8522ddd4be1d8d14a243e7fcc9834a0d35575"
      },
      "recordedDate": "2024-02-16"
    },
    "request": {
      "method": "PUT",
      "url": "Condition/2092b4ae69451736986774ede97f1b85c9592e9176bd094c0f499ea197af582c"
    }
  }, {
    "fullUrl": "Specimen/db122dc57b8d290cd196a2cfe7cffd1556f642ad6cb31462c9735cc209767020",
    "resource": {
      "resourceType": "Specimen",
      "id": "db122dc57b8d290cd196a2cfe7cffd1556f642ad6cb31462c9735cc209767020",
      "meta": {
        "profile": [ "https://www.medizininformatik-initiative.de/fhir/ext/modul-onko/StructureDefinition/mii-pr-onko-specimen" ]
      },
      "identifier": [ {
        "system": "https://bzkf.github.io/obds-to-fhir/identifiers/histologie-specimen-id",
        "value": "271"
      } ],
      "accessionIdentifier": {
        "value": "H00012345-21"
      },
      "subject": {
        "reference": "Patient/1f3cbe89f02e77981b92928db4f8522ddd4be1d8d14a243e7fcc9834a0d35575"
      },
      "collection": {
        "collectedDateTime": "2021-07-08"
      }
    },
    "request": {
      "method": "PUT",
      "url": "Specimen/db122dc57b8d290cd196a2cfe7cffd1556f642ad6cb31462c9735cc209767020"
    }
  }, {
    "fullUrl": "Observation/d00a9441200a9e547be663c54b38c38397745a7d7488ed5a24d2c55b57cd1836",
    "resource": {
      "resourceType": "Observation",
      "id": "d00a9441200a9e547be663c54b38c38397745a7d7488ed5a24d2c55b57cd1836",
      "meta": {
        "profile": [ "https://www.medizininformatik-initiative.de/fhir/ext/modul-onko/StructureDefinition/mii-pr-onko-histologie-icdo3" ]
      },
      "identifier": [ {
        "system": "https://bzkf.github.io/obds-to-fhir/identifiers/verlaufshistologie-observation-id",
        "value": "271-ICDO3-8140-3"
      } ],
      "status": "final",
      "code": {
        "coding": [ {
          "system": "http://loinc.org",
          "version": "2.80",
          "code": "59847-4",
          "display": "Histology and Behavior ICD-O-3 Cancer"
        } ]
      },
      "subject": {
        "reference": "Patient/1f3cbe89f02e77981b92928db4f8522ddd4be1d8d14a243e7fcc9834a0d35575"
      },
      "focus": [ {
        "reference": "Condition/2092b4ae69451736986774ede97f1b85c9592e9176bd094c0f499ea197af582c"
      } ],
      "effectiveDateTime": "2021-07-08",
      "valueCodeableConcept": {
        "coding": [ {
          "system": "http://terminology.hl7.org/CodeSystem/icd-o-3",
          "version": "33",
          "code": "8140/3"
        } ],
        "text": "Adenokarzinom"
      },
      "specimen": {
        "reference": "Specimen/db122dc57b8d290cd196a2cfe7cffd1556f642ad6cb31462c9735cc209767020"
      }
    },
    "request": {
      "method": "PUT",
      "url": "Observation/d00a9441200a9e547be663c54b38c38397745a7d7488ed5a24d2c55b57cd1836"
    }
  }, {
    "fullUrl": "Observation/ed51598e3ce3a0dae7d439a13d8fb202bec295a9bbae22cb36f43d9d89024291",
    "resource": {
      "resourceType": "Observation",
      "id": "ed51598e3ce3a0dae7d439a13d8fb202bec295a9bbae22cb36f43d9d89024291",
      "meta": {
        "profile": [ "https://www.medizininformatik-initiative.de/fhir/ext/modul-onko/StructureDefinition/mii-pr-onko-grading" ]
      },
      "identifier": [ {
        "system": "https://bzkf.github.io/obds-to-fhir/identifiers/grading-observation-id",
        "value": "271-grading"
      } ],
      "status": "final",
      "category": [ {
        "coding": [ {
          "system": "http://terminology.hl7.org/CodeSystem/observation-category",
          "code": "laboratory"
        } ]
      } ],
      "code": {
        "coding": [ {
          "system": "http://loinc.org",
          "version": "2.80",
          "code": "33732-9",
          "display": "Histology grade [Identifier] in Cancer specimen"
        }, {
          "system": "http://snomed.info/sct",
          "version": "http://snomed.info/sct/900000000000207008/version/20250501",
          "code": "371469007",
          "display": "Histologic grade of neoplasm (observable entity)"
        } ]
      },
      "subject": {
        "reference": "Patient/1f3cbe89f02e77981b92928db4f8522ddd4be1d8d14a243e7fcc9834a0d35575"
      },
      "focus": [ {
        "reference": "Condition/2092b4ae69451736986774ede97f1b85c9592e9176bd094c0f499ea197af582c"
      } ],
      "effectiveDateTime": "2021-07-08",
      "valueCodeableConcept": {
        "coding": [ {
          "system": "https://www.medizininformatik-initiative.de/fhir/ext/modul-onko/CodeSystem/mii-cs-onko-grading",
          "code": "T"
        } ]
      },
      "specimen": {
        "reference": "Specimen/db122dc57b8d290cd196a2cfe7cffd1556f642ad6cb31462c9735cc209767020"
      }
    },
    "request": {
      "method": "PUT",
      "url": "Observation/ed51598e3ce3a0dae7d439a13d8fb202bec295a9bbae22cb36f43d9d89024291"
    }
  }, {
    "fullUrl": "Observation/ca2d8d5e2eac44e3b0a4b8aca3ac9e9d3de32d6beb9c2f45e40b7f1729608eab",
    "resource": {
      "resourceType": "Observation",
      "id": "ca2d8d5e2eac44e3b0a4b8aca3ac9e9d3de32d6beb9c2f45e40b7f1729608eab",
      "meta": {
        "profile": [ "https://www.medizininformatik-initiative.de/fhir/ext/modul-onko/StructureDefinition/mii-pr-onko-prostate-anzahl-stanzen" ]
      },
      "identifier": [ {
        "system": "https://bzkf.github.io/obds-to-fhir/identifiers/prostata-anzahl-stanzen-observation-id",
        "value": "PAT_70102-modul-prostata-anzahl-stanzen"
      } ],
      "status": "final",
      "code": {
        "coding": [ {
          "system": "http://loinc.org",
          "version": "2.80",
          "code": "44652-6",
          "display": "Total number of cores in Tissue core"
        } ]
      },
      "subject": {
        "reference": "Patient/1f3cbe89f02e77981b92928db4f8522ddd4be1d8d14a243e7fcc9834a0d35575"
      },
      "focus": [ {
        "reference": "Condition/2092b4ae69451736986774ede97f1b85c9592e9176bd094c0f499ea197af582c"
      } ],
      "effectiveDateTime": "2021-08-01",
      "valueInteger": 21
    },
    "request": {
      "method": "PUT",
      "url": "Observation/ca2d8d5e2eac44e3b0a4b8aca3ac9e9d3de32d6beb9c2f45e40b7f1729608eab"
    }
  }, {
    "fullUrl": "Observation/408d18d1685c8a19afe4e9459c3a6d34095f7dc116a35049f6b7b458444131eb",
    "resource": {
      "resourceType": "Observation",
      "id": "408d18d1685c8a19afe4e9459c3a6d34095f7dc116a35049f6b7b458444131eb",
      "meta": {
        "profile": [ "https://www.medizininformatik-initiative.de/fhir/ext/modul-onko/StructureDefinition/mii-pr-onko-prostate-anzahl-positive-stanzen" ]
      },
      "identifier": [ {
        "system": "https://bzkf.github.io/obds-to-fhir/identifiers/prostata-anzahl-positive-stanzen-observation-id",
        "value": "PAT_70102-modul-prostata-anzahl-positive-stanzen"
      } ],
      "status": "final",
      "code": {
        "coding": [ {
          "system": "http://loinc.org",
          "version": "2.80",
          "code": "44651-8",
          "display": "Tissue cores.positive.carcinoma in Tissue core"
        } ]
      },
      "subject": {
        "reference": "Patient/1f3cbe89f02e77981b92928db4f8522ddd4be1d8d14a243e7fcc9834a0d35575"
      },
      "focus": [ {
        "reference": "Condition/2092b4ae69451736986774ede97f1b85c9592e9176bd094c0f499ea197af582c"
      } ],
      "effectiveDateTime": "2021-08-01",
      "valueInteger": 9
    },
    "request": {
      "method": "PUT",
      "url": "Observation/408d18d1685c8a19afe4e9459c3a6d34095f7dc116a35049f6b7b458444131eb"
    }
  }, {
    "fullUrl": "Observation/b1c29d89612bd9b165d77e7ff43621d6b283b80afd6e0e1e0e2ec49593c046ae",
    "resource": {
      "resourceType": "Observation",
      "id": "b1c29d89612bd9b165d77e7ff43621d6b283b80afd6e0e1e0e2ec49593c046ae",
      "meta": {
        "profile": [ "https://www.medizininformatik-initiative.de/fhir/ext/modul-onko/StructureDefinition/mii-pr-onko-prostate-ca-befall-stanze" ]
      },
      "identifier": [ {
        "system": "https://bzkf.github.io/obds-to-fhir/identifiers/prostata-ca-befall-stanze-observation-id",
        "value": "PAT_70102-modul-prostata-ca-befall-stanze"
      } ],
      "status": "final",
      "code": {
        "coding": [ {
          "system": "http://loinc.org",
          "version": "2.80",
          "code": "44654-2",
          "display": "Tissue involved by tumor in Prostate tumor"
        } ]
      },
      "subject": {
        "reference": "Patient/1f3cbe89f02e77981b92928db4f8522ddd4be1d8d14a243e7fcc9834a0d35575"
      },
      "focus": [ {
        "reference": "Condition/2092b4ae69451736986774ede97f1b85c9592e9176bd094c0f499ea197af582c"
      } ],
      "effectiveDateTime": "2021-08-01",
      "valueQuantity": {
        "value": 80,
        "unit": "%",
        "system": "http://unitsofmeasure.org",
        "code": "%"
      }
    },
    "request": {
      "method": "PUT",
      "url": "Observation/b1c29d89612bd9b165d77e7ff43621d6b283b80afd6e0e1e0e2ec49593c046ae"
    }
  }, {
    "fullUrl": "Observation/122754793404a436c9bd9b34a791109806c44e7d24a50cb88219d9119b465b0f",
    "resource": {
      "resourceType": "Observation",
      "id": "122754793404a436c9bd9b34a791109806c44e7d24a50cb88219d9119b465b0f",
      "meta": {
        "profile": [ "https://www.medizininformatik-initiative.de/fhir/ext/modul-onko/StructureDefinition/mii-pr-onko-prostate-gleason-grade-group" ]
      },
      "identifier": [ {
        "system": "https://bzkf.github.io/obds-to-fhir/identifiers/prostata-gleason-patterns-observation-id",
        "value": "PAT_70102-modul-prostata-gleason-grade-group"
      } ],
      "status": "final",
      "code": {
        "coding": [ {
          "system": "http://snomed.info/sct",
          "version": "http://snomed.info/sct/900000000000207008/version/20250501",
          "code": "1812491000004107",
          "display": "Histologic grade of primary malignant neoplasm of prostate by International Society of Urological Pathology technique (observable entity)"
        } ]
      },
      "subject": {
        "reference": "Patient/1f3cbe89f02e77981b92928db4f8522ddd4be1d8d14a243e7fcc9834a0d35575"
      },
      "focus": [ {
        "reference": "Condition/2092b4ae69451736986774ede97f1b85c9592e9176bd094c0f499ea197af582c"
      } ],
      "valueCodeableConcept": {
        "coding": [ {
          "extension": [ {
            "url": "http://hl7.org/fhir/StructureDefinition/ordinalValue",
            "valueDecimal": 9
          } ],
          "system": "http://snomed.info/sct",
          "version": "http://snomed.info/sct/900000000000207008/version/20250501",
          "code": "1279720000"
        } ],
        "text": "4+5"
      },
      "method": {
        "coding": [ {
          "system": "http://snomed.info/sct",
          "version": "http://snomed.info/sct/900000000000207008/version/20250501",
          "code": "65801008",
          "display": "Excision (procedure)"
        } ]
      },
      "derivedFrom": [ {
        "reference": "Observation/1e2145c174659bf62a7d211c17802368ff7abce21c052a1e72053f4b3af14858"
      }, {
        "reference": "Observation/d2e90ac2bdf02679db053fb5c603fe5785c390b9f3ddd56b454d9939ddde4883"
      } ]
    },
    "request": {
      "method": "PUT",
      "url": "Observation/122754793404a436c9bd9b34a791109806c44e7d24a50cb88219d9119b465b0f"
    }
  }, {
    "fullUrl": "Observation/1e2145c174659bf62a7d211c17802368ff7abce21c052a1e72053f4b3af14858",
    "resource": {
      "resourceType": "Observation",
      "id": "1e2145c174659bf62a7d211c17802368ff7abce21c052a1e72053f4b3af14858",
      "meta": {
        "profile": [ "https://www.medizininformatik-initiative.de/fhir/ext/modul-onko/StructureDefinition/mii-pr-onko-prostate-gleason-patterns" ]
      },
      "identifier": [ {
        "system": "https://bzkf.github.io/obds-to-fhir/identifiers/prostata-gleason-patterns-observation-id",
        "value": "PAT_70102-modul-prostata-primary-gleason-pattern"
      } ],
      "status": "final",
      "code": {
        "coding": [ {
          "system": "http://snomed.info/sct",
          "version": "http://snomed.info/sct/900000000000207008/version/20250501",
          "code": "384994009",
          "display": "Primary Gleason pattern (observable entity)"
        } ]
      },
      "subject": {
        "reference": "Patient/1f3cbe89f02e77981b92928db4f8522ddd4be1d8d14a243e7fcc9834a0d35575"
      },
      "focus": [ {
        "reference": "Condition/2092b4ae69451736986774ede97f1b85c9592e9176bd094c0f499ea197af582c"
      } ],
      "valueCodeableConcept": {
        "coding": [ {
          "extension": [ {
            "url": "http://hl7.org/fhir/StructureDefinition/ordinalValue",
            "valueDecimal": 4
          } ],
          "system": "http://snomed.info/sct",
          "version": "http://snomed.info/sct/900000000000207008/version/20250501",
          "code": "369773008",
          "display": "Gleason Pattern 4 (finding)"
        } ]
      },
      "method": {
        "coding": [ {
          "system": "http://snomed.info/sct",
          "version": "http://snomed.info/sct/900000000000207008/version/20250501",
          "code": "65801008",
          "display": "Excision (procedure)"
        } ]
      }
    },
    "request": {
      "method": "PUT",
      "url": "Observation/1e2145c174659bf62a7d211c17802368ff7abce21c052a1e72053f4b3af14858"
    }
  }, {
    "fullUrl": "Observation/d2e90ac2bdf02679db053fb5c603fe5785c390b9f3ddd56b454d9939ddde4883",
    "resource": {
      "resourceType": "Observation",
      "id": "d2e90ac2bdf02679db053fb5c603fe5785c390b9f3ddd56b454d9939ddde4883",
      "meta": {
        "profile": [ "https://www.medizininformatik-initiative.de/fhir/ext/modul-onko/StructureDefinition/mii-pr-onko-prostate-gleason-patterns" ]
      },
      "identifier": [ {
        "system": "https://bzkf.github.io/obds-to-fhir/identifiers/prostata-gleason-patterns-observation-id",
        "value": "PAT_70102-modul-prostata-secondary-gleason-pattern"
      } ],
      "status": "final",
      "code": {
        "coding": [ {
          "system": "http://snomed.info/sct",
          "version": "http://snomed.info/sct/900000000000207008/version/20250501",
          "code": "384995005",
          "display": "Secondary Gleason pattern (observable entity)"
        } ]
      },
      "subject": {
        "reference": "Patient/1f3cbe89f02e77981b92928db4f8522ddd4be1d8d14a243e7fcc9834a0d35575"
      },
      "focus": [ {
        "reference": "Condition/2092b4ae69451736986774ede97f1b85c9592e9176bd094c0f499ea197af582c"
      } ],
      "valueCodeableConcept": {
        "coding": [ {
          "extension": [ {
            "url": "http://hl7.org/fhir/StructureDefinition/ordinalValue",
            "valueDecimal": 5
          } ],
          "system": "http://snomed.info/sct",
          "version": "http://snomed.info/sct/900000000000207008/version/20250501",
          "code": "369774002",
          "display": "Gleason Pattern 5 (finding)"
        } ]
      },
      "method": {
        "coding": [ {
          "system": "http://snomed.info/sct",
          "version": "http://snomed.info/sct/900000000000207008/version/20250501",
          "code": "65801008",
          "display": "Excision (procedure)"
        } ]
      }
    },
    "request": {
      "method": "PUT",
      "url": "Observation/d2e90ac2bdf02679db053fb5c603fe5785c390b9f3ddd56b454d9939ddde4883"
    }
  }, {
    "fullUrl": "DiagnosticReport/46563ac340ea2b1b5d8d0fb87517bf2e97870675437e7ab6ea3c87c53386e3db",
    "resource": {
      "resourceType": "DiagnosticReport",
      "id": "46563ac340ea2b1b5d8d0fb87517bf2e97870675437e7ab6ea3c87c53386e3db",
      "meta": {
        "profile": [ "https://www.medizininformatik-initiative.de/fhir/ext/modul-onko/StructureDefinition/mii-pr-onko-befund" ]
      },
      "identifier": [ {
        "system": "https://bzkf.github.io/obds-to-fhir/identifiers/histologiebefund-diagnostic-report-id",
        "value": "PAT_70102"
      } ],
      "status": "final",
      "code": {
        "coding": [ {
          "system": "http://loinc.org",
          "version": "2.80",
          "code": "22034-3",
          "display": "Pathology report Cancer Narrative"
        } ]
      },
      "subject": {
        "reference": "Patient/1f3cbe89f02e77981b92928db4f8522ddd4be1d8d14a243e7fcc9834a0d35575"
      },
      "specimen": [ {
        "reference": "Specimen/db122dc57b8d290cd196a2cfe7cffd1556f642ad6cb31462c9735cc209767020"
      } ],
      "conclusion": "Lorem ipsum dolor sit amet, consectetaur adipisicing elit, sed do eiusmod tempor incididunt ut labore et dolore magna aliqua. Ut enim ad minim veniam, quis nostrud exercitation ullamco laboris nisi ut aliquip ex ea commodo consequat. Duis aute irure dolor in reprehenderit in voluptate velit esse cillum dolore eu fugiat nulla pariatur."
    },
    "request": {
      "method": "PUT",
      "url": "DiagnosticReport/46563ac340ea2b1b5d8d0fb87517bf2e97870675437e7ab6ea3c87c53386e3db"
    }
  } ]
}