{
  "resourceType": "Bundle",
  "id": "4a8639bbad9d5774878e0d6a132ece2b65912449072a6888e2028987d5d479c4",
  "type": "transaction",
  "entry": [ {
    "fullUrl": "Patient/4a8639bbad9d5774878e0d6a132ece2b65912449072a6888e2028987d5d479c4",
    "resource": {
      "resourceType": "Patient",
      "id": "4a8639bbad9d5774878e0d6a132ece2b65912449072a6888e2028987d5d479c4",
      "meta": {
        "profile": [ "https://www.medizininformatik-initiative.de/fhir/core/modul-person/StructureDefinition/PatientPseudonymisiert" ]
      },
      "identifier": [ {
        "type": {
          "coding": [ {
            "system": "http://terminology.hl7.org/CodeSystem/v2-0203",
            "code": "MR",
            "display": "Medical record number"
          }, {
            "system": "http://terminology.hl7.org/CodeSystem/v3-ObservationValue",
            "code": "PSEUDED",
            "display": "pseudonymized"
          } ]
        },
        "system": "https://bzkf.github.io/obds-to-fhir/identifiers/patient-id",
        "value": "50"
      } ],
      "gender": "male",
      "birthDate": "1948-03-05",
      "address": [ {
        "type": "both",
        "postalCode": "30175",
        "country": "DE"
      } ]
    },
    "request": {
      "method": "PUT",
      "url": "Patient/4a8639bbad9d5774878e0d6a132ece2b65912449072a6888e2028987d5d479c4"
    }
  }, {
    "fullUrl": "Condition/7747c362c90103cc61ce81482b623db5277551c7d5f08aae581ad0b3c8c6e6d5",
    "resource": {
      "resourceType": "Condition",
      "id": "7747c362c90103cc61ce81482b623db5277551c7d5f08aae581ad0b3c8c6e6d5",
      "meta": {
        "profile": [ "https://www.medizininformatik-initiative.de/fhir/ext/modul-onko/StructureDefinition/mii-pr-onko-diagnose-primaertumor" ]
      },
      "extension": [ {
        "url": "https://www.medizininformatik-initiative.de/fhir/ext/modul-onko/StructureDefinition/mii-ex-onko-histology-morphology-behavior-icdo3",
        "valueCodeableConcept": {
          "coding": [ {
            "system": "http://terminology.hl7.org/CodeSystem/icd-o-3",
            "version": "31",
            "code": "8140/3"
          } ],
          "text": "Adenokarzinom o.n.A."
        }
      }, {
        "url": "http://hl7.org/fhir/StructureDefinition/condition-assertedDate",
        "valueDateTime": "2020-08-02"
      } ],
      "identifier": [ {
        "system": "https://bzkf.github.io/obds-to-fhir/identifiers/primaerdiagnose-condition-id",
        "value": "50-501"
      } ],
      "verificationStatus": {
        "coding": [ {
          "system": "http://terminology.hl7.org/CodeSystem/condition-ver-status",
          "code": "confirmed"
        }, {
          "system": "https://www.medizininformatik-initiative.de/fhir/ext/modul-onko/CodeSystem/mii-cs-onko-primaertumor-diagnosesicherung",
          "code": "7"
        } ]
      },
      "code": {
        "coding": [ {
          "system": "http://fhir.de/CodeSystem/bfarm/icd-10-gm",
          "version": "2020",
          "code": "C20"
        } ]
      },
      "bodySite": [ {
        "coding": [ {
          "system": "http://terminology.hl7.org/CodeSystem/icd-o-3",
          "version": "33",
          "code": "C20.9"
        } ],
        "text": "Rektum o.n.A. (Ampulle)"
      }, {
        "coding": [ {
          "system": "https://www.medizininformatik-initiative.de/fhir/ext/modul-onko/CodeSystem/mii-cs-onko-seitenlokalisation",
          "code": "T"
        }, {
          "system": "http://snomed.info/sct",
          "version": "http://snomed.info/sct/900000000000207008/version/20250501",
          "code": "385432009",
          "display": "Not applicable (qualifier value)"
        } ]
      } ],
      "subject": {
        "reference": "Patient/4a8639bbad9d5774878e0d6a132ece2b65912449072a6888e2028987d5d479c4"
      },
      "recordedDate": "2024-02-16",
      "evidence": [ {
        "detail": [ {
          "reference": "List/fc61d9fd239c7babbad7c514f2a20413d56eabacb0a60fcec48e8390e1817f87"
        } ]
      } ]
    },
    "request": {
      "method": "PUT",
      "url": "Condition/7747c362c90103cc61ce81482b623db5277551c7d5f08aae581ad0b3c8c6e6d5"
    }
  }, {
    "fullUrl": "CarePlan/897c611f7d4a2cb408798ad87d40623202643da0ecc19934aa9d83f00e943fb0",
    "resource": {
      "resourceType": "CarePlan",
      "id": "897c611f7d4a2cb408798ad87d40623202643da0ecc19934aa9d83f00e943fb0",
      "meta": {
        "profile": [ "https://www.medizininformatik-initiative.de/fhir/ext/modul-onko/StructureDefinition/mii-pr-onko-tumorkonferenz" ]
      },
      "identifier": [ {
        "system": "https://bzkf.github.io/obds-to-fhir/identifiers/tumorkonferenz-care-plan-id",
        "value": "Tumorkonferenz-106"
      } ],
      "status": "active",
      "intent": "plan",
      "category": [ {
        "coding": [ {
          "system": "https://www.medizininformatik-initiative.de/fhir/ext/modul-onko/CodeSystem/mii-cs-onko-therapieplanung-typ",
          "code": "praeth"
        } ]
      } ],
      "subject": {
        "reference": "Patient/4a8639bbad9d5774878e0d6a132ece2b65912449072a6888e2028987d5d479c4"
      },
      "created": "2020-08-20",
      "addresses": [ {
        "reference": "Condition/7747c362c90103cc61ce81482b623db5277551c7d5f08aae581ad0b3c8c6e6d5"
      } ],
      "activity": [ {
        "detail": {
          "code": {
            "coding": [ {
              "system": "https://www.medizininformatik-initiative.de/fhir/ext/modul-onko/CodeSystem/mii-cs-onko-therapie-typ",
              "code": "CH"
            } ]
          },
          "status": "cancelled",
          "statusReason": {
            "coding": [ {
              "system": "https://www.medizininformatik-initiative.de/fhir/ext/modul-onko/CodeSystem/mii-cs-onko-therapieabweichung",
              "code": "J"
            } ]
          }
        }
      }, {
        "detail": {
          "code": {
            "coding": [ {
              "system": "https://www.medizininformatik-initiative.de/fhir/ext/modul-onko/CodeSystem/mii-cs-onko-therapie-typ",
              "code": "ST"
            } ]
          },
          "status": "cancelled",
          "statusReason": {
            "coding": [ {
              "system": "https://www.medizininformatik-initiative.de/fhir/ext/modul-onko/CodeSystem/mii-cs-onko-therapieabweichung",
              "code": "J"
            } ]
          }
        }
      }, {
        "detail": {
          "code": {
            "coding": [ {
              "system": "https://www.medizininformatik-initiative.de/fhir/ext/modul-onko/CodeSystem/mii-cs-onko-therapie-typ",
              "code": "OP"
            } ]
          },
          "status": "cancelled",
          "statusReason": {
            "coding": [ {
              "system": "https://www.medizininformatik-initiative.de/fhir/ext/modul-onko/CodeSystem/mii-cs-onko-therapieabweichung",
              "code": "J"
            } ]
          }
        }
      } ]
    },
    "request": {
      "method": "PUT",
      "url": "CarePlan/897c611f7d4a2cb408798ad87d40623202643da0ecc19934aa9d83f00e943fb0"
    }
  }, {
    "fullUrl": "Procedure/ba548e5462413736f11995db5ed33a55ca7edb7d3fc8914c4d3c33778bac8c1b",
    "resource": {
      "resourceType": "Procedure",
      "id": "ba548e5462413736f11995db5ed33a55ca7edb7d3fc8914c4d3c33778bac8c1b",
      "meta": {
        "profile": [ "https://www.medizininformatik-initiative.de/fhir/ext/modul-onko/StructureDefinition/mii-pr-onko-operation" ]
      },
      "extension": [ {
        "url": "https://www.medizininformatik-initiative.de/fhir/ext/modul-onko/StructureDefinition/mii-ex-onko-operation-intention",
        "valueCodeableConcept": {
          "coding": [ {
            "system": "https://www.medizininformatik-initiative.de/fhir/ext/modul-onko/CodeSystem/mii-cs-onko-intention",
            "code": "K"
          } ]
        }
      } ],
      "identifier": [ {
        "system": "https://bzkf.github.io/obds-to-fhir/identifiers/operation-procedure-id",
        "value": "140-5-484-55"
      } ],
      "status": "completed",
      "category": {
        "coding": [ {
          "system": "http://snomed.info/sct",
          "version": "http://snomed.info/sct/900000000000207008/version/20250501",
          "code": "387713003",
          "display": "Surgical procedure"
        } ]
      },
      "code": {
        "coding": [ {
          "system": "http://fhir.de/CodeSystem/bfarm/ops",
          "version": "2020",
          "code": "5-484.55"
        } ]
      },
      "subject": {
        "reference": "Patient/4a8639bbad9d5774878e0d6a132ece2b65912449072a6888e2028987d5d479c4"
      },
      "performedDateTime": "2020-08-31",
      "reasonReference": [ {
        "reference": "Condition/7747c362c90103cc61ce81482b623db5277551c7d5f08aae581ad0b3c8c6e6d5"
      } ],
      "outcome": {
        "coding": [ {
          "system": "https://www.medizininformatik-initiative.de/fhir/ext/modul-onko/CodeSystem/mii-cs-onko-residualstatus",
          "code": "R0"
        } ]
      }
    },
    "request": {
      "method": "PUT",
      "url": "Procedure/ba548e5462413736f11995db5ed33a55ca7edb7d3fc8914c4d3c33778bac8c1b"
    }
  }, {
    "fullUrl": "Procedure/f8721ccaf2b0b9dae950ea9769603cfac3373aeef4c738ac196a9b48a3d41193",
    "resource": {
      "resourceType": "Procedure",
      "id": "f8721ccaf2b0b9dae950ea9769603cfac3373aeef4c738ac196a9b48a3d41193",
      "meta": {
        "profile": [ "https://www.medizininformatik-initiative.de/fhir/ext/modul-onko/StructureDefinition/mii-pr-onko-operation" ]
      },
      "extension": [ {
        "url": "https://www.medizininformatik-initiative.de/fhir/ext/modul-onko/StructureDefinition/mii-ex-onko-operation-intention",
        "valueCodeableConcept": {
          "coding": [ {
            "system": "https://www.medizininformatik-initiative.de/fhir/ext/modul-onko/CodeSystem/mii-cs-onko-intention",
            "code": "K"
          } ]
        }
      } ],
      "identifier": [ {
        "system": "https://bzkf.github.io/obds-to-fhir/identifiers/operation-procedure-id",
        "value": "140-5-402-a"
      } ],
      "status": "completed",
      "category": {
        "coding": [ {
          "system": "http://snomed.info/sct",
          "version": "http://snomed.info/sct/900000000000207008/version/20250501",
          "code": "387713003",
          "display": "Surgical procedure"
        } ]
      },
      "code": {
        "coding": [ {
          "system": "http://fhir.de/CodeSystem/bfarm/ops",
          "version": "2020",
          "code": "5-402.a"
        } ]
      },
      "subject": {
        "reference": "Patient/4a8639bbad9d5774878e0d6a132ece2b65912449072a6888e2028987d5d479c4"
      },
      "performedDateTime": "2020-08-31",
      "reasonReference": [ {
        "reference": "Condition/7747c362c90103cc61ce81482b623db5277551c7d5f08aae581ad0b3c8c6e6d5"
      } ],
      "outcome": {
        "coding": [ {
          "system": "https://www.medizininformatik-initiative.de/fhir/ext/modul-onko/CodeSystem/mii-cs-onko-residualstatus",
          "code": "R0"
        } ]
      }
    },
    "request": {
      "method": "PUT",
      "url": "Procedure/f8721ccaf2b0b9dae950ea9769603cfac3373aeef4c738ac196a9b48a3d41193"
    }
  }, {
    "fullUrl": "Observation/a30af108fe299ccd35464232c6f48499d73f2bf2fb6be244a50531850ededcb7",
    "resource": {
      "resourceType": "Observation",
      "id": "a30af108fe299ccd35464232c6f48499d73f2bf2fb6be244a50531850ededcb7",
      "identifier": [ {
        "system": "https://bzkf.github.io/obds-to-fhir/identifiers/residualstatus-observation-id",
        "value": "140"
      } ],
      "status": "final",
      "code": {
        "coding": [ {
          "system": "http://loinc.org",
          "version": "2.80",
          "code": "84892-9",
          "display": "Residual tumor classification [Type] in Cancer specimen"
        } ]
      },
      "subject": {
        "reference": "Patient/4a8639bbad9d5774878e0d6a132ece2b65912449072a6888e2028987d5d479c4"
      },
      "focus": [ {
        "reference": "Condition/7747c362c90103cc61ce81482b623db5277551c7d5f08aae581ad0b3c8c6e6d5"
      } ],
      "effectiveDateTime": "2020-08-31",
      "valueCodeableConcept": {
        "coding": [ {
          "system": "https://www.medizininformatik-initiative.de/fhir/ext/modul-onko/CodeSystem/mii-cs-onko-residualstatus",
          "code": "R0"
        } ]
      }
    },
    "request": {
      "method": "PUT",
      "url": "Observation/a30af108fe299ccd35464232c6f48499d73f2bf2fb6be244a50531850ededcb7"
    }
  }, {
    "fullUrl": "Specimen/59b2936d4a62bd36254284f34b00327e003850e49749cc9096d06baa752bec98",
    "resource": {
      "resourceType": "Specimen",
      "id": "59b2936d4a62bd36254284f34b00327e003850e49749cc9096d06baa752bec98",
      "meta": {
        "profile": [ "https://www.medizininformatik-initiative.de/fhir/ext/modul-onko/StructureDefinition/mii-pr-onko-specimen" ]
      },
      "identifier": [ {
        "system": "https://bzkf.github.io/obds-to-fhir/identifiers/histologie-specimen-id",
        "value": "259"
      } ],
      "subject": {
        "reference": "Patient/4a8639bbad9d5774878e0d6a132ece2b65912449072a6888e2028987d5d479c4"
      },
      "collection": {
        "collectedDateTime": "2020-08-31"
      }
    },
    "request": {
      "method": "PUT",
      "url": "Specimen/59b2936d4a62bd36254284f34b00327e003850e49749cc9096d06baa752bec98"
    }
  }, {
    "fullUrl": "Observation/11c564941f98b394cc41756475078e18897e12f98a480f942fc7028ced127381",
    "resource": {
      "resourceType": "Observation",
      "id": "11c564941f98b394cc41756475078e18897e12f98a480f942fc7028ced127381",
      "meta": {
        "profile": [ "https://www.medizininformatik-initiative.de/fhir/ext/modul-onko/StructureDefinition/mii-pr-onko-histologie-icdo3" ]
      },
      "identifier": [ {
        "system": "https://bzkf.github.io/obds-to-fhir/identifiers/verlaufshistologie-observation-id",
        "value": "259-ICDO3-8140-3"
      } ],
      "status": "final",
      "code": {
        "coding": [ {
          "system": "http://loinc.org",
          "version": "2.80",
          "code": "59847-4",
          "display": "Histology and Behavior ICD-O-3 Cancer"
        } ]
      },
      "subject": {
        "reference": "Patient/4a8639bbad9d5774878e0d6a132ece2b65912449072a6888e2028987d5d479c4"
      },
      "focus": [ {
        "reference": "Condition/7747c362c90103cc61ce81482b623db5277551c7d5f08aae581ad0b3c8c6e6d5"
      } ],
      "effectiveDateTime": "2020-08-31",
      "valueCodeableConcept": {
        "coding": [ {
          "system": "http://terminology.hl7.org/CodeSystem/icd-o-3",
          "version": "31",
          "code": "8140/3"
        } ],
        "text": "Adenokarzinom o.n.A."
      },
      "specimen": {
        "reference": "Specimen/59b2936d4a62bd36254284f34b00327e003850e49749cc9096d06baa752bec98"
      }
    },
    "request": {
      "method": "PUT",
      "url": "Observation/11c564941f98b394cc41756475078e18897e12f98a480f942fc7028ced127381"
    }
  }, {
    "fullUrl": "Observation/90b47742a625d4cff626ffc8453d82a37c6d84f2a0bda1a5c17fbcef081fbf70",
    "resource": {
      "resourceType": "Observation",
      "id": "90b47742a625d4cff626ffc8453d82a37c6d84f2a0bda1a5c17fbcef081fbf70",
      "meta": {
        "profile": [ "https://www.medizininformatik-initiative.de/fhir/ext/modul-onko/StructureDefinition/mii-pr-onko-grading" ]
      },
      "identifier": [ {
        "system": "https://bzkf.github.io/obds-to-fhir/identifiers/grading-observation-id",
        "value": "259-grading"
      } ],
      "status": "final",
      "category": [ {
        "coding": [ {
          "system": "http://terminology.hl7.org/CodeSystem/observation-category",
          "code": "laboratory"
        } ]
      } ],
      "code": {
        "coding": [ {
          "system": "http://loinc.org",
          "version": "2.80",
          "code": "33732-9",
          "display": "Histology grade [Identifier] in Cancer specimen"
        }, {
          "system": "http://snomed.info/sct",
          "version": "http://snomed.info/sct/900000000000207008/version/20250501",
          "code": "371469007",
          "display": "Histologic grade of neoplasm (observable entity)"
        } ]
      },
      "subject": {
        "reference": "Patient/4a8639bbad9d5774878e0d6a132ece2b65912449072a6888e2028987d5d479c4"
      },
      "focus": [ {
        "reference": "Condition/7747c362c90103cc61ce81482b623db5277551c7d5f08aae581ad0b3c8c6e6d5"
      } ],
      "effectiveDateTime": "2020-08-31",
      "valueCodeableConcept": {
        "coding": [ {
          "system": "https://www.medizininformatik-initiative.de/fhir/ext/modul-onko/CodeSystem/mii-cs-onko-grading",
          "code": "3"
        } ]
      },
      "specimen": {
        "reference": "Specimen/59b2936d4a62bd36254284f34b00327e003850e49749cc9096d06baa752bec98"
      }
    },
    "request": {
      "method": "PUT",
      "url": "Observation/90b47742a625d4cff626ffc8453d82a37c6d84f2a0bda1a5c17fbcef081fbf70"
    }
  }, {
    "fullUrl": "Observation/7f87ef2ca34630bbc833034b5b655dab54d4639619652f626725065323d17f27",
    "resource": {
      "resourceType": "Observation",
      "id": "7f87ef2ca34630bbc833034b5b655dab54d4639619652f626725065323d17f27",
      "meta": {
        "profile": [ "https://www.medizininformatik-initiative.de/fhir/ext/modul-onko/StructureDefinition/mii-pr-onko-anzahl-befallene-lymphknoten" ]
      },
      "identifier": [ {
        "system": "https://bzkf.github.io/obds-to-fhir/identifiers/lymphknotenuntersuchung-observation-id",
        "value": "259-befallen"
      } ],
      "status": "final",
      "category": [ {
        "coding": [ {
          "system": "http://terminology.hl7.org/CodeSystem/observation-category",
          "code": "laboratory"
        } ]
      } ],
      "code": {
        "coding": [ {
          "system": "http://loinc.org",
          "version": "2.80",
          "code": "21893-3"
        }, {
          "system": "http://snomed.info/sct",
          "version": "http://snomed.info/sct/900000000000207008/version/20250501",
          "code": "443527007"
        } ]
      },
      "subject": {
        "reference": "Patient/4a8639bbad9d5774878e0d6a132ece2b65912449072a6888e2028987d5d479c4"
      },
      "focus": [ {
        "reference": "Condition/7747c362c90103cc61ce81482b623db5277551c7d5f08aae581ad0b3c8c6e6d5"
      } ],
      "effectiveDateTime": "2020-08-31",
      "valueQuantity": {
        "value": 0,
        "unit": "#",
        "system": "http://unitsofmeasure.org",
        "code": "1"
      },
      "specimen": {
        "reference": "Specimen/59b2936d4a62bd36254284f34b00327e003850e49749cc9096d06baa752bec98"
      }
    },
    "request": {
      "method": "PUT",
      "url": "Observation/7f87ef2ca34630bbc833034b5b655dab54d4639619652f626725065323d17f27"
    }
  }, {
    "fullUrl": "Observation/4696d5553928d9599403b015f8c454faee1fcc18fdcca5ebcc72683694879a2a",
    "resource": {
      "resourceType": "Observation",
      "id": "4696d5553928d9599403b015f8c454faee1fcc18fdcca5ebcc72683694879a2a",
      "meta": {
        "profile": [ "https://www.medizininformatik-initiative.de/fhir/ext/modul-onko/StructureDefinition/mii-pr-onko-anzahl-untersuchte-lymphknoten" ]
      },
      "identifier": [ {
        "system": "https://bzkf.github.io/obds-to-fhir/identifiers/lymphknotenuntersuchung-observation-id",
        "value": "259-untersucht"
      } ],
      "status": "final",
      "category": [ {
        "coding": [ {
          "system": "http://terminology.hl7.org/CodeSystem/observation-category",
          "code": "laboratory"
        } ]
      } ],
      "code": {
        "coding": [ {
          "system": "http://loinc.org",
          "version": "2.80",
          "code": "21894-1"
        }, {
          "system": "http://snomed.info/sct",
          "version": "http://snomed.info/sct/900000000000207008/version/20250501",
          "code": "444025001"
        } ]
      },
      "subject": {
        "reference": "Patient/4a8639bbad9d5774878e0d6a132ece2b65912449072a6888e2028987d5d479c4"
      },
      "focus": [ {
        "reference": "Condition/7747c362c90103cc61ce81482b623db5277551c7d5f08aae581ad0b3c8c6e6d5"
      } ],
      "effectiveDateTime": "2020-08-31",
      "valueQuantity": {
        "value": 14,
        "unit": "#",
        "system": "http://unitsofmeasure.org",
        "code": "1"
      },
      "specimen": {
        "reference": "Specimen/59b2936d4a62bd36254284f34b00327e003850e49749cc9096d06baa752bec98"
      }
    },
    "request": {
      "method": "PUT",
      "url": "Observation/4696d5553928d9599403b015f8c454faee1fcc18fdcca5ebcc72683694879a2a"
    }
  }, {
    "fullUrl": "Observation/47581dc4b1ed7e5433595b0e8964684c56cc7196278fc4e4c5f96963fb99f7a5",
    "resource": {
      "resourceType": "Observation",
      "id": "47581dc4b1ed7e5433595b0e8964684c56cc7196278fc4e4c5f96963fb99f7a5",
      "meta": {
        "profile": [ "https://www.medizininformatik-initiative.de/fhir/ext/modul-onko/StructureDefinition/mii-pr-onko-tnm-t-kategorie" ]
      },
      "identifier": [ {
        "system": "https://bzkf.github.io/obds-to-fhir/identifiers/tnm-t-kategorie-observation-id",
        "value": "246-2020-08-31-T"
      } ],
      "status": "final",
      "code": {
        "extension": [ {
          "url": "https://www.medizininformatik-initiative.de/fhir/ext/modul-onko/StructureDefinition/mii-ex-onko-tnm-cp-praefix",
          "valueCodeableConcept": {
            "coding": [ {
              "system": "https://www.uicc.org/resources/tnm",
              "code": "p"
            } ]
          }
        } ],
        "coding": [ {
          "system": "http://snomed.info/sct",
          "version": "http://snomed.info/sct/900000000000207008/version/20250501",
          "code": "384625004",
          "display": "pT category (observable entity)"
        } ]
      },
      "subject": {
        "reference": "Patient/4a8639bbad9d5774878e0d6a132ece2b65912449072a6888e2028987d5d479c4"
      },
      "focus": [ {
        "reference": "Condition/7747c362c90103cc61ce81482b623db5277551c7d5f08aae581ad0b3c8c6e6d5"
      } ],
      "effectiveDateTime": "2020-08-31",
      "valueCodeableConcept": {
        "coding": [ {
          "system": "https://www.uicc.org/resources/tnm",
          "code": "T3"
        } ]
      },
      "method": {
        "coding": [ {
          "system": "https://www.medizininformatik-initiative.de/fhir/ext/modul-onko/CodeSystem/mii-cs-onko-tnm-version",
          "code": "8"
        } ]
      }
    },
    "request": {
      "method": "PUT",
      "url": "Observation/47581dc4b1ed7e5433595b0e8964684c56cc7196278fc4e4c5f96963fb99f7a5"
    }
  }, {
    "fullUrl": "Observation/9fa456e6b4c2eee313a1db516b43d41cb9791cfc8acdb36b5da44be3acfc01bb",
    "resource": {
      "resourceType": "Observation",
      "id": "9fa456e6b4c2eee313a1db516b43d41cb9791cfc8acdb36b5da44be3acfc01bb",
      "meta": {
        "profile": [ "https://www.medizininformatik-initiative.de/fhir/ext/modul-onko/StructureDefinition/mii-pr-onko-tnm-n-kategorie" ]
      },
      "identifier": [ {
        "system": "https://bzkf.github.io/obds-to-fhir/identifiers/tnm-n-kategorie-observation-id",
        "value": "246-2020-08-31-N"
      } ],
      "status": "final",
      "code": {
        "extension": [ {
          "url": "https://www.medizininformatik-initiative.de/fhir/ext/modul-onko/StructureDefinition/mii-ex-onko-tnm-cp-praefix",
          "valueCodeableConcept": {
            "coding": [ {
              "system": "https://www.uicc.org/resources/tnm",
              "code": "p"
            } ]
          }
        } ],
        "coding": [ {
          "system": "http://snomed.info/sct",
          "version": "http://snomed.info/sct/900000000000207008/version/20250501",
          "code": "371494008",
          "display": "pN category (observable entity)"
        } ]
      },
      "subject": {
        "reference": "Patient/4a8639bbad9d5774878e0d6a132ece2b65912449072a6888e2028987d5d479c4"
      },
      "focus": [ {
        "reference": "Condition/7747c362c90103cc61ce81482b623db5277551c7d5f08aae581ad0b3c8c6e6d5"
      } ],
      "effectiveDateTime": "2020-08-31",
      "valueCodeableConcept": {
        "coding": [ {
          "system": "https://www.uicc.org/resources/tnm",
          "code": "N0"
        } ]
      },
      "method": {
        "coding": [ {
          "system": "https://www.medizininformatik-initiative.de/fhir/ext/modul-onko/CodeSystem/mii-cs-onko-tnm-version",
          "code": "8"
        } ]
      }
    },
    "request": {
      "method": "PUT",
      "url": "Observation/9fa456e6b4c2eee313a1db516b43d41cb9791cfc8acdb36b5da44be3acfc01bb"
    }
  }, {
    "fullUrl": "Observation/6210a631c6b980099cf081da985e432b9d471efd069b81760605489b5ae1271a",
    "resource": {
      "resourceType": "Observation",
      "id": "6210a631c6b980099cf081da985e432b9d471efd069b81760605489b5ae1271a",
      "meta": {
        "profile": [ "https://www.medizininformatik-initiative.de/fhir/ext/modul-onko/StructureDefinition/mii-pr-onko-tnm-m-kategorie" ]
      },
      "identifier": [ {
        "system": "https://bzkf.github.io/obds-to-fhir/identifiers/tnm-m-kategorie-observation-id",
        "value": "246-2020-08-31-M"
      } ],
      "status": "final",
      "code": {
        "extension": [ {
          "url": "https://www.medizininformatik-initiative.de/fhir/ext/modul-onko/StructureDefinition/mii-ex-onko-tnm-cp-praefix",
          "valueCodeableConcept": {
            "coding": [ {
              "system": "https://www.uicc.org/resources/tnm",
              "code": "c"
            } ]
          }
        } ],
        "coding": [ {
          "system": "http://snomed.info/sct",
          "version": "http://snomed.info/sct/900000000000207008/version/20250501",
          "code": "399387003",
          "display": "cM category (observable entity)"
        } ]
      },
      "subject": {
        "reference": "Patient/4a8639bbad9d5774878e0d6a132ece2b65912449072a6888e2028987d5d479c4"
      },
      "focus": [ {
        "reference": "Condition/7747c362c90103cc61ce81482b623db5277551c7d5f08aae581ad0b3c8c6e6d5"
      } ],
      "effectiveDateTime": "2020-08-31",
      "valueCodeableConcept": {
        "coding": [ {
          "system": "https://www.uicc.org/resources/tnm",
          "code": "M0"
        } ]
      },
      "method": {
        "coding": [ {
          "system": "https://www.medizininformatik-initiative.de/fhir/ext/modul-onko/CodeSystem/mii-cs-onko-tnm-version",
          "code": "8"
        } ]
      }
    },
    "request": {
      "method": "PUT",
      "url": "Observation/6210a631c6b980099cf081da985e432b9d471efd069b81760605489b5ae1271a"
    }
  }, {
    "fullUrl": "Observation/0c3cfdc86ffc29ba8ffb78db29884c56e4cb1d4d2f9854fc86153c4091ac149a",
    "resource": {
      "resourceType": "Observation",
      "id": "0c3cfdc86ffc29ba8ffb78db29884c56e4cb1d4d2f9854fc86153c4091ac149a",
      "meta": {
        "profile": [ "https://www.medizininformatik-initiative.de/fhir/ext/modul-onko/StructureDefinition/mii-pr-onko-tnm-m-symbol" ]
      },
      "identifier": [ {
        "system": "https://bzkf.github.io/obds-to-fhir/identifiers/tnm-m-symbol-observation-id",
        "value": "246-2020-08-31-m"
      } ],
      "status": "final",
      "code": {
        "coding": [ {
          "system": "http://loinc.org",
          "version": "2.80",
          "code": "42030-7",
          "display": "Multiple tumors reported as single primary Cancer"
        } ]
      },
      "subject": {
        "reference": "Patient/4a8639bbad9d5774878e0d6a132ece2b65912449072a6888e2028987d5d479c4"
      },
      "focus": [ {
        "reference": "Condition/7747c362c90103cc61ce81482b623db5277551c7d5f08aae581ad0b3c8c6e6d5"
      } ],
      "effectiveDateTime": "2020-08-31",
      "valueCodeableConcept": {
        "coding": [ {
          "system": "https://www.uicc.org/resources/tnm",
          "code": "2"
        } ]
      },
      "method": {
        "coding": [ {
          "system": "https://www.medizininformatik-initiative.de/fhir/ext/modul-onko/CodeSystem/mii-cs-onko-tnm-version",
          "code": "8"
        } ]
      }
    },
    "request": {
      "method": "PUT",
      "url": "Observation/0c3cfdc86ffc29ba8ffb78db29884c56e4cb1d4d2f9854fc86153c4091ac149a"
    }
  }, {
    "fullUrl": "Observation/d8cab30e1d88dc013f9c85715d52c4a71b2eca711baeba96cc467beae12a40df",
    "resource": {
      "resourceType": "Observation",
      "id": "d8cab30e1d88dc013f9c85715d52c4a71b2eca711baeba96cc467beae12a40df",
      "meta": {
        "profile": [ "https://www.medizininformatik-initiative.de/fhir/ext/modul-onko/StructureDefinition/mii-pr-onko-tnm-l-kategorie" ]
      },
      "identifier": [ {
        "system": "https://bzkf.github.io/obds-to-fhir/identifiers/tnm-l-kategorie-observation-id",
        "value": "246-2020-08-31-L"
      } ],
      "status": "final",
      "code": {
        "coding": [ {
          "system": "http://snomed.info/sct",
          "version": "http://snomed.info/sct/900000000000207008/version/20250501",
          "code": "395715009",
          "display": "Status of lymphatic (small vessel) invasion by tumor (observable entity)"
        } ]
      },
      "subject": {
        "reference": "Patient/4a8639bbad9d5774878e0d6a132ece2b65912449072a6888e2028987d5d479c4"
      },
      "focus": [ {
        "reference": "Condition/7747c362c90103cc61ce81482b623db5277551c7d5f08aae581ad0b3c8c6e6d5"
      } ],
      "effectiveDateTime": "2020-08-31",
      "valueCodeableConcept": {
        "coding": [ {
          "system": "https://www.uicc.org/resources/tnm",
          "code": "L0"
        } ]
      },
      "method": {
        "coding": [ {
          "system": "https://www.medizininformatik-initiative.de/fhir/ext/modul-onko/CodeSystem/mii-cs-onko-tnm-version",
          "code": "8"
        } ]
      }
    },
    "request": {
      "method": "PUT",
      "url": "Observation/d8cab30e1d88dc013f9c85715d52c4a71b2eca711baeba96cc467beae12a40df"
    }
  }, {
    "fullUrl": "Observation/1397a59189da6c87916bf128d50d1aa9a939377f59dbf5bc0fd80e4fb67d7c47",
    "resource": {
      "resourceType": "Observation",
      "id": "1397a59189da6c87916bf128d50d1aa9a939377f59dbf5bc0fd80e4fb67d7c47",
      "meta": {
        "profile": [ "https://www.medizininformatik-initiative.de/fhir/ext/modul-onko/StructureDefinition/mii-pr-onko-tnm-pn-kategorie" ]
      },
      "identifier": [ {
        "system": "https://bzkf.github.io/obds-to-fhir/identifiers/tnm-pn-kategorie-observation-id",
        "value": "246-2020-08-31-Pn"
      } ],
      "status": "final",
      "code": {
        "coding": [ {
          "system": "http://snomed.info/sct",
          "version": "http://snomed.info/sct/900000000000207008/version/20250501",
          "code": "371513001",
          "display": "Presence of direct invasion by primary malignant neoplasm to nerve (observable entity)"
        } ]
      },
      "subject": {
        "reference": "Patient/4a8639bbad9d5774878e0d6a132ece2b65912449072a6888e2028987d5d479c4"
      },
      "focus": [ {
        "reference": "Condition/7747c362c90103cc61ce81482b623db5277551c7d5f08aae581ad0b3c8c6e6d5"
      } ],
      "effectiveDateTime": "2020-08-31",
      "valueCodeableConcept": {
        "coding": [ {
          "system": "https://www.uicc.org/resources/tnm",
          "code": "Pn0"
        } ]
      },
      "method": {
        "coding": [ {
          "system": "https://www.medizininformatik-initiative.de/fhir/ext/modul-onko/CodeSystem/mii-cs-onko-tnm-version",
          "code": "8"
        } ]
      }
    },
    "request": {
      "method": "PUT",
      "url": "Observation/1397a59189da6c87916bf128d50d1aa9a939377f59dbf5bc0fd80e4fb67d7c47"
    }
  }, {
    "fullUrl": "Observation/7f883b4746161c99891e0cfa73540f4d3a061d5a7eabf01639b48511f459aa9e",
    "resource": {
      "resourceType": "Observation",
      "id": "7f883b4746161c99891e0cfa73540f4d3a061d5a7eabf01639b48511f459aa9e",
      "meta": {
        "profile": [ "https://www.medizininformatik-initiative.de/fhir/ext/modul-onko/StructureDefinition/mii-pr-onko-tnm-v-kategorie" ]
      },
      "identifier": [ {
        "system": "https://bzkf.github.io/obds-to-fhir/identifiers/tnm-v-kategorie-observation-id",
        "value": "246-2020-08-31-V"
      } ],
      "status": "final",
      "code": {
        "coding": [ {
          "system": "http://snomed.info/sct",
          "version": "http://snomed.info/sct/900000000000207008/version/20250501",
          "code": "371493002",
          "display": "Status of venous (large vessel) invasion by tumor (observable entity)"
        } ]
      },
      "subject": {
        "reference": "Patient/4a8639bbad9d5774878e0d6a132ece2b65912449072a6888e2028987d5d479c4"
      },
      "focus": [ {
        "reference": "Condition/7747c362c90103cc61ce81482b623db5277551c7d5f08aae581ad0b3c8c6e6d5"
      } ],
      "effectiveDateTime": "2020-08-31",
      "valueCodeableConcept": {
        "coding": [ {
          "system": "https://www.uicc.org/resources/tnm",
          "code": "V0"
        } ]
      },
      "method": {
        "coding": [ {
          "system": "https://www.medizininformatik-initiative.de/fhir/ext/modul-onko/CodeSystem/mii-cs-onko-tnm-version",
          "code": "8"
        } ]
      }
    },
    "request": {
      "method": "PUT",
      "url": "Observation/7f883b4746161c99891e0cfa73540f4d3a061d5a7eabf01639b48511f459aa9e"
    }
  }, {
    "fullUrl": "Observation/c63617bf9518c0e3f3a7ba5bba0fe66437a301ffd43cf9e103c020daa664d92a",
    "resource": {
      "resourceType": "Observation",
      "id": "c63617bf9518c0e3f3a7ba5bba0fe66437a301ffd43cf9e103c020daa664d92a",
      "meta": {
        "profile": [ "https://www.medizininformatik-initiative.de/fhir/ext/modul-onko/StructureDefinition/mii-pr-onko-tnm-klassifikation" ]
      },
      "identifier": [ {
        "system": "https://bzkf.github.io/obds-to-fhir/identifiers/tnm-grouping-observation-id",
        "value": "246-2020-08-31"
      } ],
      "status": "final",
      "code": {
        "coding": [ {
          "system": "http://snomed.info/sct",
          "version": "http://snomed.info/sct/900000000000207008/version/20250501",
          "code": "399390009",
          "display": "TNM stage grouping"
        } ]
      },
      "subject": {
        "reference": "Patient/4a8639bbad9d5774878e0d6a132ece2b65912449072a6888e2028987d5d479c4"
      },
      "focus": [ {
        "reference": "Condition/7747c362c90103cc61ce81482b623db5277551c7d5f08aae581ad0b3c8c6e6d5"
      } ],
      "effectiveDateTime": "2020-08-31",
      "valueCodeableConcept": {
        "coding": [ {
          "system": "https://www.uicc.org/resources/tnm",
          "code": "IIA",
          "display": "Stadium IIA"
        } ]
      },
      "method": {
        "coding": [ {
          "system": "https://www.medizininformatik-initiative.de/fhir/ext/modul-onko/CodeSystem/mii-cs-onko-tnm-version",
          "code": "8"
        } ]
      },
      "hasMember": [ {
        "reference": "Observation/47581dc4b1ed7e5433595b0e8964684c56cc7196278fc4e4c5f96963fb99f7a5"
      }, {
        "reference": "Observation/9fa456e6b4c2eee313a1db516b43d41cb9791cfc8acdb36b5da44be3acfc01bb"
      }, {
        "reference": "Observation/6210a631c6b980099cf081da985e432b9d471efd069b81760605489b5ae1271a"
      }, {
        "reference": "Observation/0c3cfdc86ffc29ba8ffb78db29884c56e4cb1d4d2f9854fc86153c4091ac149a"
      }, {
        "reference": "Observation/d8cab30e1d88dc013f9c85715d52c4a71b2eca711baeba96cc467beae12a40df"
      }, {
        "reference": "Observation/1397a59189da6c87916bf128d50d1aa9a939377f59dbf5bc0fd80e4fb67d7c47"
      }, {
        "reference": "Observation/7f883b4746161c99891e0cfa73540f4d3a061d5a7eabf01639b48511f459aa9e"
      } ]
    },
    "request": {
      "method": "PUT",
      "url": "Observation/c63617bf9518c0e3f3a7ba5bba0fe66437a301ffd43cf9e103c020daa664d92a"
    }
  }, {
    "fullUrl": "Procedure/f6ed3b0fa56f326e5a7aec89c9c57decd6bef29b24da97bb20060c0b6a5baebe",
    "resource": {
      "resourceType": "Procedure",
      "id": "f6ed3b0fa56f326e5a7aec89c9c57decd6bef29b24da97bb20060c0b6a5baebe",
      "meta": {
        "profile": [ "https://www.medizininformatik-initiative.de/fhir/ext/modul-onko/StructureDefinition/mii-pr-onko-systemische-therapie" ]
      },
      "extension": [ {
        "url": "https://www.medizininformatik-initiative.de/fhir/ext/modul-onko/StructureDefinition/mii-ex-onko-systemische-therapie-intention",
        "valueCodeableConcept": {
          "coding": [ {
            "system": "https://www.medizininformatik-initiative.de/fhir/ext/modul-onko/CodeSystem/mii-cs-onko-intention",
            "code": "K"
          } ]
        }
      }, {
        "url": "https://www.medizininformatik-initiative.de/fhir/ext/modul-onko/StructureDefinition/mii-ex-onko-strahlentherapie-stellungzurop",
        "valueCodeableConcept": {
          "coding": [ {
            "system": "https://www.medizininformatik-initiative.de/fhir/ext/modul-onko/CodeSystem/mii-cs-therapie-stellungzurop",
            "code": "A"
          } ]
        }
      } ],
      "identifier": [ {
        "system": "https://bzkf.github.io/obds-to-fhir/identifiers/systemische-therapie-procedure-id",
        "value": "50_1_IN_1"
      } ],
      "status": "in-progress",
      "category": {
        "coding": [ {
          "system": "http://snomed.info/sct",
          "version": "http://snomed.info/sct/900000000000207008/version/20250501",
          "code": "18629005",
          "display": "Administration of drug or medicament (procedure)"
        } ]
      },
      "code": {
        "coding": [ {
          "system": "http://fhir.de/CodeSystem/bfarm/ops",
          "version": "2025",
          "code": "8-54",
          "display": "Zytostatische Chemotherapie, Immuntherapie und antiretrovirale Therapie"
        }, {
          "system": "https://www.medizininformatik-initiative.de/fhir/ext/modul-onko/CodeSystem/mii-cs-onko-therapie-typ",
          "code": "CH"
        } ],
        "text": "FOLFOX-4"
      },
      "subject": {
        "reference": "Patient/4a8639bbad9d5774878e0d6a132ece2b65912449072a6888e2028987d5d479c4"
      },
      "performedPeriod": {
        "start": "2020-09-21"
      }
    },
    "request": {
      "method": "PUT",
      "url": "Procedure/f6ed3b0fa56f326e5a7aec89c9c57decd6bef29b24da97bb20060c0b6a5baebe"
    }
  }, {
    "fullUrl": "MedicationStatement/ddc31603057174c06fa69d99e72d15057d7e2cde408cee7de9e5890ad3655d0f",
    "resource": {
      "resourceType": "MedicationStatement",
      "id": "ddc31603057174c06fa69d99e72d15057d7e2cde408cee7de9e5890ad3655d0f",
      "meta": {
        "profile": [ "https://www.medizininformatik-initiative.de/fhir/ext/modul-onko/StructureDefinition/mii-pr-onko-systemische-therapie-medikation" ]
      },
      "identifier": [ {
        "system": "https://bzkf.github.io/obds-to-fhir/identifiers/systemische-therapie-medication-statement-id",
        "value": "50_1_IN_1-Oxaliplatin"
      } ],
      "partOf": [ {
        "reference": "Procedure/f6ed3b0fa56f326e5a7aec89c9c57decd6bef29b24da97bb20060c0b6a5baebe"
      } ],
      "status": "active",
      "medicationCodeableConcept": {
        "coding": [ {
          "system": "http://fhir.de/CodeSystem/bfarm/atc",
          "code": "L01XA03"
        } ],
        "text": "Oxaliplatin"
      },
      "subject": {
        "reference": "Patient/4a8639bbad9d5774878e0d6a132ece2b65912449072a6888e2028987d5d479c4"
      },
      "effectivePeriod": {
        "start": "2020-09-21"
      },
      "reasonReference": [ {
        "reference": "Condition/7747c362c90103cc61ce81482b623db5277551c7d5f08aae581ad0b3c8c6e6d5"
      } ]
    },
    "request": {
      "method": "PUT",
      "url": "MedicationStatement/ddc31603057174c06fa69d99e72d15057d7e2cde408cee7de9e5890ad3655d0f"
    }
  }, {
    "fullUrl": "MedicationStatement/b483d229a8906023647a98e2530595794c779fbf3a2a7db3981fc04835545ee4",
    "resource": {
      "resourceType": "MedicationStatement",
      "id": "b483d229a8906023647a98e2530595794c779fbf3a2a7db3981fc04835545ee4",
      "meta": {
        "profile": [ "https://www.medizininformatik-initiative.de/fhir/ext/modul-onko/StructureDefinition/mii-pr-onko-systemische-therapie-medikation" ]
      },
      "identifier": [ {
        "system": "https://bzkf.github.io/obds-to-fhir/identifiers/systemische-therapie-medication-statement-id",
        "value": "50_1_IN_1-5-Fluorouracil"
      } ],
      "partOf": [ {
        "reference": "Procedure/f6ed3b0fa56f326e5a7aec89c9c57decd6bef29b24da97bb20060c0b6a5baebe"
      } ],
      "status": "active",
      "medicationCodeableConcept": {
        "text": "5-Fluorouracil"
      },
      "subject": {
        "reference": "Patient/4a8639bbad9d5774878e0d6a132ece2b65912449072a6888e2028987d5d479c4"
      },
      "effectivePeriod": {
        "start": "2020-09-21"
      },
      "reasonReference": [ {
        "reference": "Condition/7747c362c90103cc61ce81482b623db5277551c7d5f08aae581ad0b3c8c6e6d5"
      } ]
    },
    "request": {
      "method": "PUT",
      "url": "MedicationStatement/b483d229a8906023647a98e2530595794c779fbf3a2a7db3981fc04835545ee4"
    }
  }, {
    "fullUrl": "MedicationStatement/709ad29b879f93e551d80cb1c6a627a2ac2fc68b929ab773e8751bc9ebb93ea8",
    "resource": {
      "resourceType": "MedicationStatement",
      "id": "709ad29b879f93e551d80cb1c6a627a2ac2fc68b929ab773e8751bc9ebb93ea8",
      "meta": {
        "profile": [ "https://www.medizininformatik-initiative.de/fhir/ext/modul-onko/StructureDefinition/mii-pr-onko-systemische-therapie-medikation" ]
      },
      "identifier": [ {
        "system": "https://bzkf.github.io/obds-to-fhir/identifiers/systemische-therapie-medication-statement-id",
        "value": "50_1_IN_1-Folinsaeure"
      } ],
      "partOf": [ {
        "reference": "Procedure/f6ed3b0fa56f326e5a7aec89c9c57decd6bef29b24da97bb20060c0b6a5baebe"
      } ],
      "status": "active",
      "medicationCodeableConcept": {
        "coding": [ {
          "system": "http://fhir.de/CodeSystem/bfarm/atc",
          "code": "V03AF03"
        } ],
        "text": "Folinsäure"
      },
      "subject": {
        "reference": "Patient/4a8639bbad9d5774878e0d6a132ece2b65912449072a6888e2028987d5d479c4"
      },
      "effectivePeriod": {
        "start": "2020-09-21"
      },
      "reasonReference": [ {
        "reference": "Condition/7747c362c90103cc61ce81482b623db5277551c7d5f08aae581ad0b3c8c6e6d5"
      } ]
    },
    "request": {
      "method": "PUT",
      "url": "MedicationStatement/709ad29b879f93e551d80cb1c6a627a2ac2fc68b929ab773e8751bc9ebb93ea8"
    }
  }, {
    "fullUrl": "AdverseEvent/ac733bec63ad106fe5f873e09c88146962a47ef395cc7d8267c6675ab3ecfcee",
    "resource": {
      "resourceType": "AdverseEvent",
      "id": "ac733bec63ad106fe5f873e09c88146962a47ef395cc7d8267c6675ab3ecfcee",
      "meta": {
        "profile": [ "https://www.medizininformatik-initiative.de/fhir/ext/modul-onko/StructureDefinition/mii-pr-onko-nebenwirkung-adverse-event" ]
      },
      "identifier": {
        "system": "https://bzkf.github.io/obds-to-fhir/identifiers/nebenwirkung-adverse-event-id",
        "value": "mii-pr-onko-nebenwirkung-50_1_IN_1-Grad-maximal-2-unbekannt"
      },
      "actuality": "actual",
      "event": {
        "extension": [ {
          "url": "http://hl7.org/fhir/StructureDefinition/data-absent-reason",
          "valueCode": "not-applicable"
        } ]
      },
      "subject": {
        "reference": "Patient/4a8639bbad9d5774878e0d6a132ece2b65912449072a6888e2028987d5d479c4"
      },
      "seriousness": {
        "coding": [ {
          "system": "https://www.medizininformatik-initiative.de/fhir/ext/modul-onko/CodeSystem/mii-cs-onko-nebenwirkung-ctcae-grad",
          "code": "2"
        } ]
      },
      "suspectEntity": [ {
        "instance": {
          "reference": "Procedure/f6ed3b0fa56f326e5a7aec89c9c57decd6bef29b24da97bb20060c0b6a5baebe"
        }
      } ]
    },
    "request": {
      "method": "PUT",
      "url": "AdverseEvent/ac733bec63ad106fe5f873e09c88146962a47ef395cc7d8267c6675ab3ecfcee"
    }
  }, {
    "fullUrl": "Procedure/dcf6ca4b7c2edcc9f181f404ae33c3e30a055f43dd78a38bbce4f2ef353a46d4",
    "resource": {
      "resourceType": "Procedure",
      "id": "dcf6ca4b7c2edcc9f181f404ae33c3e30a055f43dd78a38bbce4f2ef353a46d4",
      "meta": {
        "profile": [ "https://www.medizininformatik-initiative.de/fhir/ext/modul-onko/StructureDefinition/mii-pr-onko-strahlentherapie" ]
      },
      "extension": [ {
        "url": "https://www.medizininformatik-initiative.de/fhir/ext/modul-onko/StructureDefinition/mii-ex-onko-strahlentherapie-intention",
        "valueCodeableConcept": {
          "coding": [ {
            "system": "https://www.medizininformatik-initiative.de/fhir/ext/modul-onko/CodeSystem/mii-cs-onko-intention",
            "code": "K"
          } ]
        }
      }, {
        "url": "https://www.medizininformatik-initiative.de/fhir/ext/modul-onko/StructureDefinition/mii-ex-onko-strahlentherapie-stellungzurop",
        "valueCodeableConcept": {
          "coding": [ {
            "system": "https://www.medizininformatik-initiative.de/fhir/ext/modul-onko/CodeSystem/mii-cs-therapie-stellungzurop",
            "code": "A"
          } ]
        }
      } ],
      "identifier": [ {
        "system": "https://bzkf.github.io/obds-to-fhir/identifiers/strahlentherapie-procedure-id",
        "value": "50_1_ST_1"
      } ],
      "status": "in-progress",
      "category": {
        "coding": [ {
          "system": "http://snomed.info/sct",
          "version": "http://snomed.info/sct/900000000000207008/version/20250501",
          "code": "1287742003",
          "display": "Radiotherapy (procedure)"
        } ]
      },
      "code": {
        "coding": [ {
          "system": "http://fhir.de/CodeSystem/bfarm/ops",
          "version": "2025",
          "code": "8-52",
          "display": "Strahlentherapie"
        } ]
      },
      "subject": {
        "reference": "Patient/4a8639bbad9d5774878e0d6a132ece2b65912449072a6888e2028987d5d479c4"
      },
      "performedPeriod": {
        "start": "2020-10-05"
      },
      "reasonReference": [ {
        "reference": "Condition/7747c362c90103cc61ce81482b623db5277551c7d5f08aae581ad0b3c8c6e6d5"
      } ]
    },
    "request": {
      "method": "PUT",
      "url": "Procedure/dcf6ca4b7c2edcc9f181f404ae33c3e30a055f43dd78a38bbce4f2ef353a46d4"
    }
  }, {
    "fullUrl": "Procedure/2da9c873b23a8eafcb9f47bcbeafa1a3c3d1de04e7f5b7b0f440c548aaeafaab",
    "resource": {
      "resourceType": "Procedure",
      "id": "2da9c873b23a8eafcb9f47bcbeafa1a3c3d1de04e7f5b7b0f440c548aaeafaab",
      "meta": {
        "profile": [ "https://www.medizininformatik-initiative.de/fhir/ext/modul-onko/StructureDefinition/mii-pr-onko-strahlentherapie-bestrahlung-strahlentherapie" ]
      },
      "identifier": [ {
        "system": "https://bzkf.github.io/obds-to-fhir/identifiers/strahlentherapie-bestrahlung-procedure-id",
        "value": "50_1_ST_1-0"
      } ],
      "partOf": [ {
        "reference": "Procedure/dcf6ca4b7c2edcc9f181f404ae33c3e30a055f43dd78a38bbce4f2ef353a46d4"
      } ],
      "status": "in-progress",
      "category": {
        "coding": [ {
          "system": "http://snomed.info/sct",
          "version": "http://snomed.info/sct/900000000000207008/version/20250501",
          "code": "1287742003",
          "display": "Radiotherapy (procedure)"
        } ]
      },
      "code": {
        "coding": [ {
          "system": "http://fhir.de/CodeSystem/bfarm/ops",
          "version": "2025",
          "code": "8-52",
          "display": "Strahlentherapie"
        } ]
      },
      "subject": {
        "reference": "Patient/4a8639bbad9d5774878e0d6a132ece2b65912449072a6888e2028987d5d479c4"
      },
      "performedPeriod": {
        "start": "2020-10-05"
      },
      "bodySite": [ {
        "extension": [ {
          "url": "https://www.medizininformatik-initiative.de/fhir/ext/modul-onko/StructureDefinition/mii-ex-onko-strahlentherapie-bestrahlung-seitenlokalisation",
          "valueCodeableConcept": {
            "coding": [ {
              "system": "https://www.medizininformatik-initiative.de/fhir/ext/modul-onko/CodeSystem/mii-cs-onko-seitenlokalisation",
              "code": "B"
            } ]
          }
        } ],
        "coding": [ {
          "system": "https://www.medizininformatik-initiative.de/fhir/ext/modul-onko/CodeSystem/mii-cs-onko-strahlentherapie-zielgebiet",
          "code": "5.1.+"
        } ]
      } ],
      "usedCode": [ {
        "coding": [ {
          "system": "https://www.medizininformatik-initiative.de/fhir/ext/modul-onko/CodeSystem/mii-cs-onko-strahlentherapie-applikationsart",
          "code": "PRCN"
        } ]
      } ]
    },
    "request": {
      "method": "PUT",
      "url": "Procedure/2da9c873b23a8eafcb9f47bcbeafa1a3c3d1de04e7f5b7b0f440c548aaeafaab"
    }
  }, {
    "fullUrl": "AdverseEvent/9b6e6eeb02b2b8890b44d769d2a5fb3ef7a77c5333202d8cb5a81da2afac3268",
    "resource": {
      "resourceType": "AdverseEvent",
      "id": "9b6e6eeb02b2b8890b44d769d2a5fb3ef7a77c5333202d8cb5a81da2afac3268",
      "meta": {
        "profile": [ "https://www.medizininformatik-initiative.de/fhir/ext/modul-onko/StructureDefinition/mii-pr-onko-nebenwirkung-adverse-event" ]
      },
      "identifier": {
        "system": "https://bzkf.github.io/obds-to-fhir/identifiers/nebenwirkung-adverse-event-id",
        "value": "mii-pr-onko-nebenwirkung-50_1_ST_1-Grad-maximal-2-unbekannt"
      },
      "actuality": "actual",
      "event": {
        "extension": [ {
          "url": "http://hl7.org/fhir/StructureDefinition/data-absent-reason",
          "valueCode": "not-applicable"
        } ]
      },
      "subject": {
        "reference": "Patient/4a8639bbad9d5774878e0d6a132ece2b65912449072a6888e2028987d5d479c4"
      },
      "seriousness": {
        "coding": [ {
          "system": "https://www.medizininformatik-initiative.de/fhir/ext/modul-onko/CodeSystem/mii-cs-onko-nebenwirkung-ctcae-grad",
          "code": "U"
        } ]
      },
      "suspectEntity": [ {
        "instance": {
          "reference": "Procedure/dcf6ca4b7c2edcc9f181f404ae33c3e30a055f43dd78a38bbce4f2ef353a46d4"
        }
      } ]
    },
    "request": {
      "method": "PUT",
      "url": "AdverseEvent/9b6e6eeb02b2b8890b44d769d2a5fb3ef7a77c5333202d8cb5a81da2afac3268"
    }
  }, {
    "fullUrl": "CarePlan/833ab1f74f5c8997344fb2fd16d5ce9dc79c2eed70ecd3a1103afa733fc78a73",
    "resource": {
      "resourceType": "CarePlan",
      "id": "833ab1f74f5c8997344fb2fd16d5ce9dc79c2eed70ecd3a1103afa733fc78a73",
      "meta": {
        "profile": [ "https://www.medizininformatik-initiative.de/fhir/ext/modul-onko/StructureDefinition/mii-pr-onko-tumorkonferenz" ]
      },
      "identifier": [ {
        "system": "https://bzkf.github.io/obds-to-fhir/identifiers/tumorkonferenz-care-plan-id",
        "value": "Tumorkonferenz-107"
      } ],
      "status": "completed",
      "intent": "plan",
      "category": [ {
        "coding": [ {
          "system": "https://www.medizininformatik-initiative.de/fhir/ext/modul-onko/CodeSystem/mii-cs-onko-therapieplanung-typ",
          "code": "postop"
        } ]
      } ],
      "subject": {
        "reference": "Patient/4a8639bbad9d5774878e0d6a132ece2b65912449072a6888e2028987d5d479c4"
      },
      "created": "2020-09-09",
      "addresses": [ {
        "reference": "Condition/7747c362c90103cc61ce81482b623db5277551c7d5f08aae581ad0b3c8c6e6d5"
      } ],
      "activity": [ {
        "detail": {
          "code": {
            "coding": [ {
              "system": "https://www.medizininformatik-initiative.de/fhir/ext/modul-onko/CodeSystem/mii-cs-onko-therapie-typ",
              "code": "CH"
            } ]
          },
          "status": "completed",
          "statusReason": {
            "coding": [ {
              "system": "https://www.medizininformatik-initiative.de/fhir/ext/modul-onko/CodeSystem/mii-cs-onko-therapieabweichung",
              "code": "N"
            } ]
          }
        }
      }, {
        "detail": {
          "code": {
            "coding": [ {
              "system": "https://www.medizininformatik-initiative.de/fhir/ext/modul-onko/CodeSystem/mii-cs-onko-therapie-typ",
              "code": "ST"
            } ]
          },
          "status": "completed",
          "statusReason": {
            "coding": [ {
              "system": "https://www.medizininformatik-initiative.de/fhir/ext/modul-onko/CodeSystem/mii-cs-onko-therapieabweichung",
              "code": "N"
            } ]
          }
        }
      } ]
    },
    "request": {
      "method": "PUT",
      "url": "CarePlan/833ab1f74f5c8997344fb2fd16d5ce9dc79c2eed70ecd3a1103afa733fc78a73"
    }
  }, {
    "fullUrl": "Observation/bcd6e1b46b8ac53bb6156e6042dfab59c08efb6bb48573621810e5ba7d6e7ad0",
    "resource": {
      "resourceType": "Observation",
      "id": "bcd6e1b46b8ac53bb6156e6042dfab59c08efb6bb48573621810e5ba7d6e7ad0",
      "meta": {
        "profile": [ "https://www.medizininformatik-initiative.de/fhir/ext/modul-onko/StructureDefinition/mii-pr-onko-allgemeiner-leistungszustand-ecog" ]
      },
      "identifier": [ {
        "system": "https://bzkf.github.io/obds-to-fhir/identifiers/allgemeiner-leistungszustand-ecog-id",
        "value": "ECOG-DIA_50101"
      } ],
      "status": "final",
      "code": {
        "coding": [ {
          "system": "http://snomed.info/sct",
          "version": "http://snomed.info/sct/900000000000207008/version/20250501",
          "code": "423740007",
          "display": "Eastern Cooperative Oncology Group performance status (observable entity)"
        } ]
      },
      "subject": {
        "reference": "Patient/4a8639bbad9d5774878e0d6a132ece2b65912449072a6888e2028987d5d479c4"
      },
      "focus": [ {
        "reference": "Condition/7747c362c90103cc61ce81482b623db5277551c7d5f08aae581ad0b3c8c6e6d5"
      } ],
      "effectiveDateTime": "2020-08-02",
      "valueCodeableConcept": {
        "coding": [ {
          "system": "https://www.medizininformatik-initiative.de/fhir/ext/modul-onko/CodeSystem/mii-cs-onko-allgemeiner-leistungszustand-ecog",
          "code": "1",
          "display": "Einschränkung bei körperlicher Anstrengung, aber gehfähig; leichte körperliche Arbeit bzw. Arbeit im Sitzen (z. B. leichte Hausarbeit oder Büroarbeit) möglich (70 - 80 % nach Karnofsky)"
        } ]
      }
    },
    "request": {
      "method": "PUT",
      "url": "Observation/bcd6e1b46b8ac53bb6156e6042dfab59c08efb6bb48573621810e5ba7d6e7ad0"
    }
  }, {
    "fullUrl": "Specimen/e6444839a0d83b4e15696c240e12bbec6ea752e45f8e3f51f0ce8e09a66ec866",
    "resource": {
      "resourceType": "Specimen",
      "id": "e6444839a0d83b4e15696c240e12bbec6ea752e45f8e3f51f0ce8e09a66ec866",
      "meta": {
        "profile": [ "https://www.medizininformatik-initiative.de/fhir/ext/modul-onko/StructureDefinition/mii-pr-onko-specimen" ]
      },
      "identifier": [ {
        "system": "https://bzkf.github.io/obds-to-fhir/identifiers/histologie-specimen-id",
        "value": "258"
      } ],
      "accessionIdentifier": {
        "value": "E/2020/20543"
      },
      "subject": {
        "reference": "Patient/4a8639bbad9d5774878e0d6a132ece2b65912449072a6888e2028987d5d479c4"
      },
      "collection": {
        "collectedDateTime": "2020-08-02"
      }
    },
    "request": {
      "method": "PUT",
      "url": "Specimen/e6444839a0d83b4e15696c240e12bbec6ea752e45f8e3f51f0ce8e09a66ec866"
    }
  }, {
    "fullUrl": "Observation/c32635e895fefe6d5895abd223121c1708122cefab4505fd4c9df5ea9b858f06",
    "resource": {
      "resourceType": "Observation",
      "id": "c32635e895fefe6d5895abd223121c1708122cefab4505fd4c9df5ea9b858f06",
      "meta": {
        "profile": [ "https://www.medizininformatik-initiative.de/fhir/ext/modul-onko/StructureDefinition/mii-pr-onko-grading" ]
      },
      "identifier": [ {
        "system": "https://bzkf.github.io/obds-to-fhir/identifiers/grading-observation-id",
        "value": "258-grading"
      } ],
      "status": "final",
      "category": [ {
        "coding": [ {
          "system": "http://terminology.hl7.org/CodeSystem/observation-category",
          "code": "laboratory"
        } ]
      } ],
      "code": {
        "coding": [ {
          "system": "http://loinc.org",
          "version": "2.80",
          "code": "33732-9",
          "display": "Histology grade [Identifier] in Cancer specimen"
        }, {
          "system": "http://snomed.info/sct",
          "version": "http://snomed.info/sct/900000000000207008/version/20250501",
          "code": "371469007",
          "display": "Histologic grade of neoplasm (observable entity)"
        } ]
      },
      "subject": {
        "reference": "Patient/4a8639bbad9d5774878e0d6a132ece2b65912449072a6888e2028987d5d479c4"
      },
      "focus": [ {
        "reference": "Condition/7747c362c90103cc61ce81482b623db5277551c7d5f08aae581ad0b3c8c6e6d5"
      } ],
      "effectiveDateTime": "2020-08-02",
      "valueCodeableConcept": {
        "coding": [ {
          "system": "https://www.medizininformatik-initiative.de/fhir/ext/modul-onko/CodeSystem/mii-cs-onko-grading",
          "code": "2"
        } ]
      },
      "specimen": {
        "reference": "Specimen/e6444839a0d83b4e15696c240e12bbec6ea752e45f8e3f51f0ce8e09a66ec866"
      }
    },
    "request": {
      "method": "PUT",
      "url": "Observation/c32635e895fefe6d5895abd223121c1708122cefab4505fd4c9df5ea9b858f06"
    }
  }, {
    "fullUrl": "Observation/b0bf9139e87921b38e177af7c8b783a93703977f6e559008333ececb2973abdf",
    "resource": {
      "resourceType": "Observation",
      "id": "b0bf9139e87921b38e177af7c8b783a93703977f6e559008333ececb2973abdf",
      "meta": {
        "profile": [ "https://www.medizininformatik-initiative.de/fhir/ext/modul-onko/StructureDefinition/mii-pr-onko-tnm-t-kategorie" ]
      },
      "identifier": [ {
        "system": "https://bzkf.github.io/obds-to-fhir/identifiers/tnm-t-kategorie-observation-id",
        "value": "245-c-2020-08-16-T"
      } ],
      "status": "final",
      "code": {
        "extension": [ {
          "url": "https://www.medizininformatik-initiative.de/fhir/ext/modul-onko/StructureDefinition/mii-ex-onko-tnm-cp-praefix",
          "valueCodeableConcept": {
            "coding": [ {
              "system": "https://www.uicc.org/resources/tnm",
              "code": "c"
            } ]
          }
        } ],
        "coding": [ {
          "system": "http://snomed.info/sct",
          "version": "http://snomed.info/sct/900000000000207008/version/20250501",
          "code": "399504009",
          "display": "cT category (observable entity)"
        } ]
      },
      "subject": {
        "reference": "Patient/4a8639bbad9d5774878e0d6a132ece2b65912449072a6888e2028987d5d479c4"
      },
      "focus": [ {
        "reference": "Condition/7747c362c90103cc61ce81482b623db5277551c7d5f08aae581ad0b3c8c6e6d5"
      } ],
      "effectiveDateTime": "2020-08-16",
      "valueCodeableConcept": {
        "coding": [ {
          "system": "https://www.uicc.org/resources/tnm",
          "code": "T3"
        } ]
      },
      "method": {
        "coding": [ {
          "system": "https://www.medizininformatik-initiative.de/fhir/ext/modul-onko/CodeSystem/mii-cs-onko-tnm-version",
          "code": "8"
        } ]
      }
    },
    "request": {
      "method": "PUT",
      "url": "Observation/b0bf9139e87921b38e177af7c8b783a93703977f6e559008333ececb2973abdf"
    }
  }, {
    "fullUrl": "Observation/05847a786566c6e98f2466a36dfb6486ab859f73b9166b59444ae526193bbf4c",
    "resource": {
      "resourceType": "Observation",
      "id": "05847a786566c6e98f2466a36dfb6486ab859f73b9166b59444ae526193bbf4c",
      "meta": {
        "profile": [ "https://www.medizininformatik-initiative.de/fhir/ext/modul-onko/StructureDefinition/mii-pr-onko-tnm-n-kategorie" ]
      },
      "identifier": [ {
        "system": "https://bzkf.github.io/obds-to-fhir/identifiers/tnm-n-kategorie-observation-id",
        "value": "245-c-2020-08-16-N"
      } ],
      "status": "final",
      "code": {
        "extension": [ {
          "url": "https://www.medizininformatik-initiative.de/fhir/ext/modul-onko/StructureDefinition/mii-ex-onko-tnm-cp-praefix",
          "valueCodeableConcept": {
            "coding": [ {
              "system": "https://www.uicc.org/resources/tnm",
              "code": "c"
            } ]
          }
        } ],
        "coding": [ {
          "system": "http://snomed.info/sct",
          "version": "http://snomed.info/sct/900000000000207008/version/20250501",
          "code": "399534004",
          "display": "cN category (observable entity)"
        } ]
      },
      "subject": {
        "reference": "Patient/4a8639bbad9d5774878e0d6a132ece2b65912449072a6888e2028987d5d479c4"
      },
      "focus": [ {
        "reference": "Condition/7747c362c90103cc61ce81482b623db5277551c7d5f08aae581ad0b3c8c6e6d5"
      } ],
      "effectiveDateTime": "2020-08-16",
      "valueCodeableConcept": {
        "coding": [ {
          "system": "https://www.uicc.org/resources/tnm",
          "code": "N0"
        } ]
      },
      "method": {
        "coding": [ {
          "system": "https://www.medizininformatik-initiative.de/fhir/ext/modul-onko/CodeSystem/mii-cs-onko-tnm-version",
          "code": "8"
        } ]
      }
    },
    "request": {
      "method": "PUT",
      "url": "Observation/05847a786566c6e98f2466a36dfb6486ab859f73b9166b59444ae526193bbf4c"
    }
  }, {
    "fullUrl": "Observation/c9e2d2daad2481e48a120ca5dab8a10a3d987fb22cf327a7bebe85f766b1feb5",
    "resource": {
      "resourceType": "Observation",
      "id": "c9e2d2daad2481e48a120ca5dab8a10a3d987fb22cf327a7bebe85f766b1feb5",
      "meta": {
        "profile": [ "https://www.medizininformatik-initiative.de/fhir/ext/modul-onko/StructureDefinition/mii-pr-onko-tnm-m-kategorie" ]
      },
      "identifier": [ {
        "system": "https://bzkf.github.io/obds-to-fhir/identifiers/tnm-m-kategorie-observation-id",
        "value": "245-c-2020-08-16-M"
      } ],
      "status": "final",
      "code": {
        "extension": [ {
          "url": "https://www.medizininformatik-initiative.de/fhir/ext/modul-onko/StructureDefinition/mii-ex-onko-tnm-cp-praefix",
          "valueCodeableConcept": {
            "coding": [ {
              "system": "https://www.uicc.org/resources/tnm",
              "code": "c"
            } ]
          }
        } ],
        "coding": [ {
          "system": "http://snomed.info/sct",
          "version": "http://snomed.info/sct/900000000000207008/version/20250501",
          "code": "399387003",
          "display": "cM category (observable entity)"
        } ]
      },
      "subject": {
        "reference": "Patient/4a8639bbad9d5774878e0d6a132ece2b65912449072a6888e2028987d5d479c4"
      },
      "focus": [ {
        "reference": "Condition/7747c362c90103cc61ce81482b623db5277551c7d5f08aae581ad0b3c8c6e6d5"
      } ],
      "effectiveDateTime": "2020-08-16",
      "valueCodeableConcept": {
        "coding": [ {
          "system": "https://www.uicc.org/resources/tnm",
          "code": "M0"
        } ]
      },
      "method": {
        "coding": [ {
          "system": "https://www.medizininformatik-initiative.de/fhir/ext/modul-onko/CodeSystem/mii-cs-onko-tnm-version",
          "code": "8"
        } ]
      }
    },
    "request": {
      "method": "PUT",
      "url": "Observation/c9e2d2daad2481e48a120ca5dab8a10a3d987fb22cf327a7bebe85f766b1feb5"
    }
  }, {
    "fullUrl": "Observation/64ed2b0e6141e44a5e0ae84db549279a7ba54743e7f5ff217896590c082bd1b8",
    "resource": {
      "resourceType": "Observation",
      "id": "64ed2b0e6141e44a5e0ae84db549279a7ba54743e7f5ff217896590c082bd1b8",
      "meta": {
        "profile": [ "https://www.medizininformatik-initiative.de/fhir/ext/modul-onko/StructureDefinition/mii-pr-onko-tnm-klassifikation" ]
      },
      "identifier": [ {
        "system": "https://bzkf.github.io/obds-to-fhir/identifiers/tnm-grouping-observation-id",
        "value": "245-c-2020-08-16"
      } ],
      "status": "final",
      "code": {
        "coding": [ {
          "system": "http://snomed.info/sct",
          "version": "http://snomed.info/sct/900000000000207008/version/20250501",
          "code": "399537006",
          "display": "Clinical TNM stage grouping"
        } ]
      },
      "subject": {
        "reference": "Patient/4a8639bbad9d5774878e0d6a132ece2b65912449072a6888e2028987d5d479c4"
      },
      "focus": [ {
        "reference": "Condition/7747c362c90103cc61ce81482b623db5277551c7d5f08aae581ad0b3c8c6e6d5"
      } ],
      "effectiveDateTime": "2020-08-16",
      "valueCodeableConcept": {
        "coding": [ {
          "system": "https://www.uicc.org/resources/tnm",
          "code": "IIA",
          "display": "Stadium IIA"
        } ]
      },
      "method": {
        "coding": [ {
          "system": "https://www.medizininformatik-initiative.de/fhir/ext/modul-onko/CodeSystem/mii-cs-onko-tnm-version",
          "code": "8"
        } ]
      },
      "hasMember": [ {
        "reference": "Observation/b0bf9139e87921b38e177af7c8b783a93703977f6e559008333ececb2973abdf"
      }, {
        "reference": "Observation/05847a786566c6e98f2466a36dfb6486ab859f73b9166b59444ae526193bbf4c"
      }, {
        "reference": "Observation/c9e2d2daad2481e48a120ca5dab8a10a3d987fb22cf327a7bebe85f766b1feb5"
      } ]
    },
    "request": {
      "method": "PUT",
      "url": "Observation/64ed2b0e6141e44a5e0ae84db549279a7ba54743e7f5ff217896590c082bd1b8"
    }
  }, {
    "fullUrl": "List/fc61d9fd239c7babbad7c514f2a20413d56eabacb0a60fcec48e8390e1817f87",
    "resource": {
      "resourceType": "List",
      "id": "fc61d9fd239c7babbad7c514f2a20413d56eabacb0a60fcec48e8390e1817f87",
      "meta": {
        "profile": [ "https://www.medizininformatik-initiative.de/fhir/ext/modul-onko/StructureDefinition/mii-pr-onko-liste-evidenz-erstdiagnose" ]
      },
      "identifier": [ {
        "system": "https://bzkf.github.io/obds-to-fhir/identifiers/erstdiagnose-evidenz-list-id",
        "value": "50-501"
      } ],
      "status": "current",
      "mode": "snapshot",
      "title": "Liste der Evidenz zum Erstdiagnosezeitpunkt",
      "subject": {
        "reference": "Patient/4a8639bbad9d5774878e0d6a132ece2b65912449072a6888e2028987d5d479c4"
      },
      "entry": [ {
        "item": {
          "reference": "Observation/bcd6e1b46b8ac53bb6156e6042dfab59c08efb6bb48573621810e5ba7d6e7ad0"
        }
      }, {
        "item": {
          "reference": "Specimen/e6444839a0d83b4e15696c240e12bbec6ea752e45f8e3f51f0ce8e09a66ec866"
        }
      }, {
        "item": {
          "reference": "Observation/c32635e895fefe6d5895abd223121c1708122cefab4505fd4c9df5ea9b858f06"
        }
      }, {
        "item": {
          "reference": "Observation/b0bf9139e87921b38e177af7c8b783a93703977f6e559008333ececb2973abdf"
        }
      }, {
        "item": {
          "reference": "Observation/05847a786566c6e98f2466a36dfb6486ab859f73b9166b59444ae526193bbf4c"
        }
      }, {
        "item": {
          "reference": "Observation/c9e2d2daad2481e48a120ca5dab8a10a3d987fb22cf327a7bebe85f766b1feb5"
        }
      }, {
        "item": {
          "reference": "Observation/64ed2b0e6141e44a5e0ae84db549279a7ba54743e7f5ff217896590c082bd1b8"
        }
      } ]
    },
    "request": {
      "method": "PUT",
      "url": "List/fc61d9fd239c7babbad7c514f2a20413d56eabacb0a60fcec48e8390e1817f87"
    }
  } ]
}