{
  "resourceType": "Bundle",
  "id": "43d8d22e39e073fbb83f221071d60fe92e947d234ada77f7401d0eb4d230a849",
  "type": "transaction",
  "entry": [ {
    "fullUrl": "Patient/43d8d22e39e073fbb83f221071d60fe92e947d234ada77f7401d0eb4d230a849",
    "resource": {
      "resourceType": "Patient",
      "id": "43d8d22e39e073fbb83f221071d60fe92e947d234ada77f7401d0eb4d230a849",
      "meta": {
        "profile": [ "https://www.medizininformatik-initiative.de/fhir/core/modul-person/StructureDefinition/PatientPseudonymisiert" ]
      },
      "identifier": [ {
        "type": {
          "coding": [ {
            "system": "http://terminology.hl7.org/CodeSystem/v2-0203",
            "code": "MR",
            "display": "Medical record number"
          }, {
            "system": "http://terminology.hl7.org/CodeSystem/v3-ObservationValue",
            "code": "PSEUDED",
            "display": "pseudonymized"
          } ]
        },
        "system": "https://bzkf.github.io/obds-to-fhir/identifiers/patient-id",
        "value": "19"
      } ],
      "gender": "female",
      "birthDate": "1950-05-01",
      "address": [ {
        "type": "both",
        "postalCode": "12345",
        "country": "DE"
      } ]
    },
    "request": {
      "method": "PUT",
      "url": "Patient/43d8d22e39e073fbb83f221071d60fe92e947d234ada77f7401d0eb4d230a849"
    }
  }, {
    "fullUrl": "Condition/60c7c9e7ec920151bab3675602c2c7653c354b96d9b5bcdda96151fc7d6dca06",
    "resource": {
      "resourceType": "Condition",
      "id": "60c7c9e7ec920151bab3675602c2c7653c354b96d9b5bcdda96151fc7d6dca06",
      "meta": {
        "profile": [ "https://www.medizininformatik-initiative.de/fhir/ext/modul-onko/StructureDefinition/mii-pr-onko-diagnose-primaertumor" ]
      },
      "extension": [ {
        "url": "https://www.medizininformatik-initiative.de/fhir/ext/modul-onko/StructureDefinition/mii-ex-onko-histology-morphology-behavior-icdo3",
        "valueCodeableConcept": {
          "coding": [ {
            "system": "http://terminology.hl7.org/CodeSystem/icd-o-3",
            "version": "33",
            "code": "8077/2"
          } ],
          "text": "Zervikale intraepitheliale Neoplasie Grad 3"
        }
      }, {
        "url": "http://hl7.org/fhir/StructureDefinition/condition-assertedDate",
        "valueDateTime": "2022-10-02"
      }, {
        "url": "http://hl7.org/fhir/StructureDefinition/condition-occurredFollowing",
        "valueReference": {
          "reference": "Condition/2c354fb45e5691c7a6f7e33efdac34a8f29d80c93fc21339191d8fdf7b53b17e"
        }
      } ],
      "identifier": [ {
        "system": "https://bzkf.github.io/obds-to-fhir/identifiers/primaerdiagnose-condition-id",
        "value": "19-195"
      } ],
      "verificationStatus": {
        "coding": [ {
          "system": "http://terminology.hl7.org/CodeSystem/condition-ver-status",
          "code": "confirmed"
        }, {
          "system": "https://www.medizininformatik-initiative.de/fhir/ext/modul-onko/CodeSystem/mii-cs-onko-primaertumor-diagnosesicherung",
          "code": "5"
        } ]
      },
      "code": {
        "coding": [ {
          "system": "http://fhir.de/CodeSystem/bfarm/icd-10-gm",
          "version": "2022",
          "code": "D06.9"
        } ]
      },
      "bodySite": [ {
        "coding": [ {
          "system": "http://terminology.hl7.org/CodeSystem/icd-o-3",
          "version": "33",
          "code": "C53.9"
        } ],
        "text": "Cervix uteri"
      }, {
        "coding": [ {
          "system": "https://www.medizininformatik-initiative.de/fhir/ext/modul-onko/CodeSystem/mii-cs-onko-seitenlokalisation",
          "code": "T"
        }, {
          "system": "http://snomed.info/sct",
          "version": "http://snomed.info/sct/900000000000207008/version/20250501",
          "code": "385432009",
          "display": "Not applicable (qualifier value)"
        } ]
      } ],
      "subject": {
        "reference": "Patient/43d8d22e39e073fbb83f221071d60fe92e947d234ada77f7401d0eb4d230a849"
      },
      "recordedDate": "2024-04-22",
      "evidence": [ {
        "detail": [ {
          "reference": "List/d1c7f88bae7347ce3687489f726bb619b240436ae19c7c5189a8d57de8b4c5c8"
        } ]
      } ]
    },
    "request": {
      "method": "PUT",
      "url": "Condition/60c7c9e7ec920151bab3675602c2c7653c354b96d9b5bcdda96151fc7d6dca06"
    }
  }, {
    "fullUrl": "Procedure/96cc691987174cc9176cee9837860076876b327ec5eab756f6f8e4e3d2e15fdd",
    "resource": {
      "resourceType": "Procedure",
      "id": "96cc691987174cc9176cee9837860076876b327ec5eab756f6f8e4e3d2e15fdd",
      "meta": {
        "profile": [ "https://www.medizininformatik-initiative.de/fhir/ext/modul-onko/StructureDefinition/mii-pr-onko-operation" ]
      },
      "extension": [ {
        "url": "https://www.medizininformatik-initiative.de/fhir/ext/modul-onko/StructureDefinition/mii-ex-onko-operation-intention",
        "valueCodeableConcept": {
          "coding": [ {
            "system": "https://www.medizininformatik-initiative.de/fhir/ext/modul-onko/CodeSystem/mii-cs-onko-intention",
            "code": "K"
          } ]
        }
      } ],
      "identifier": [ {
        "system": "https://bzkf.github.io/obds-to-fhir/identifiers/operation-procedure-id",
        "value": "29-5-671-01"
      } ],
      "status": "completed",
      "category": {
        "coding": [ {
          "system": "http://snomed.info/sct",
          "version": "http://snomed.info/sct/900000000000207008/version/20250501",
          "code": "387713003",
          "display": "Surgical procedure"
        } ]
      },
      "code": {
        "coding": [ {
          "system": "http://fhir.de/CodeSystem/bfarm/ops",
          "version": "2022",
          "code": "5-671.01"
        } ]
      },
      "subject": {
        "reference": "Patient/43d8d22e39e073fbb83f221071d60fe92e947d234ada77f7401d0eb4d230a849"
      },
      "performedDateTime": "2022-10-16",
      "reasonReference": [ {
        "reference": "Condition/60c7c9e7ec920151bab3675602c2c7653c354b96d9b5bcdda96151fc7d6dca06"
      } ],
      "outcome": {
        "coding": [ {
          "system": "https://www.medizininformatik-initiative.de/fhir/ext/modul-onko/CodeSystem/mii-cs-onko-residualstatus",
          "code": "R0"
        } ]
      }
    },
    "request": {
      "method": "PUT",
      "url": "Procedure/96cc691987174cc9176cee9837860076876b327ec5eab756f6f8e4e3d2e15fdd"
    }
  }, {
    "fullUrl": "Observation/4039fb1c7eb636f48eb37893b683752a6f41e7e05dffc8b12bb3fe8a336d5008",
    "resource": {
      "resourceType": "Observation",
      "id": "4039fb1c7eb636f48eb37893b683752a6f41e7e05dffc8b12bb3fe8a336d5008",
      "meta": {
        "profile": [ "https://www.medizininformatik-initiative.de/fhir/ext/modul-onko/StructureDefinition/mii-pr-onko-residualstatus" ]
      },
      "identifier": [ {
        "system": "https://bzkf.github.io/obds-to-fhir/identifiers/residualstatus-observation-id",
        "value": "29"
      } ],
      "status": "final",
      "code": {
        "coding": [ {
          "system": "http://loinc.org",
          "version": "2.80",
          "code": "84892-9",
          "display": "Residual tumor classification [Type] in Cancer specimen"
        } ]
      },
      "subject": {
        "reference": "Patient/43d8d22e39e073fbb83f221071d60fe92e947d234ada77f7401d0eb4d230a849"
      },
      "focus": [ {
        "reference": "Condition/60c7c9e7ec920151bab3675602c2c7653c354b96d9b5bcdda96151fc7d6dca06"
      } ],
      "effectiveDateTime": "2022-10-16",
      "valueCodeableConcept": {
        "coding": [ {
          "system": "https://www.medizininformatik-initiative.de/fhir/ext/modul-onko/CodeSystem/mii-cs-onko-residualstatus",
          "code": "R0"
        } ]
      }
    },
    "request": {
      "method": "PUT",
      "url": "Observation/4039fb1c7eb636f48eb37893b683752a6f41e7e05dffc8b12bb3fe8a336d5008"
    }
  }, {
    "fullUrl": "Specimen/ce61305b9676650bf63e434b8504ca3851677155a6d471328210b35d4e1637c7",
    "resource": {
      "resourceType": "Specimen",
      "id": "ce61305b9676650bf63e434b8504ca3851677155a6d471328210b35d4e1637c7",
      "meta": {
        "profile": [ "https://www.medizininformatik-initiative.de/fhir/ext/modul-onko/StructureDefinition/mii-pr-onko-specimen" ]
      },
      "identifier": [ {
        "system": "https://bzkf.github.io/obds-to-fhir/identifiers/histologie-specimen-id",
        "value": "54"
      } ],
      "accessionIdentifier": {
        "value": "X/98765/2"
      },
      "subject": {
        "reference": "Patient/43d8d22e39e073fbb83f221071d60fe92e947d234ada77f7401d0eb4d230a849"
      },
      "collection": {
        "collectedDateTime": "2022-10-16"
      }
    },
    "request": {
      "method": "PUT",
      "url": "Specimen/ce61305b9676650bf63e434b8504ca3851677155a6d471328210b35d4e1637c7"
    }
  }, {
    "fullUrl": "Observation/1abd87a18bca5717b511aad44bef3f0569480a8de7d47a0600e200e8fc59c14f",
    "resource": {
      "resourceType": "Observation",
      "id": "1abd87a18bca5717b511aad44bef3f0569480a8de7d47a0600e200e8fc59c14f",
      "meta": {
        "profile": [ "https://www.medizininformatik-initiative.de/fhir/ext/modul-onko/StructureDefinition/mii-pr-onko-histologie-icdo3" ]
      },
      "identifier": [ {
        "system": "https://bzkf.github.io/obds-to-fhir/identifiers/verlaufshistologie-observation-id",
        "value": "54-ICDO3-8077-2"
      } ],
      "status": "final",
      "code": {
        "coding": [ {
          "system": "http://loinc.org",
          "version": "2.80",
          "code": "59847-4",
          "display": "Histology and Behavior ICD-O-3 Cancer"
        } ]
      },
      "subject": {
        "reference": "Patient/43d8d22e39e073fbb83f221071d60fe92e947d234ada77f7401d0eb4d230a849"
      },
      "focus": [ {
        "reference": "Condition/60c7c9e7ec920151bab3675602c2c7653c354b96d9b5bcdda96151fc7d6dca06"
      } ],
      "effectiveDateTime": "2022-10-16",
      "valueCodeableConcept": {
        "coding": [ {
          "system": "http://terminology.hl7.org/CodeSystem/icd-o-3",
          "version": "33",
          "code": "8077/2"
        } ],
        "text": "Zervikale intraepitheliale Neoplasie Grad 3"
      },
      "specimen": {
        "reference": "Specimen/ce61305b9676650bf63e434b8504ca3851677155a6d471328210b35d4e1637c7"
      }
    },
    "request": {
      "method": "PUT",
      "url": "Observation/1abd87a18bca5717b511aad44bef3f0569480a8de7d47a0600e200e8fc59c14f"
    }
  }, {
    "fullUrl": "Observation/0c3247797f283c23fed499dffafc570fbdb6787d732ce735fc6aeb18ed8ab3b8",
    "resource": {
      "resourceType": "Observation",
      "id": "0c3247797f283c23fed499dffafc570fbdb6787d732ce735fc6aeb18ed8ab3b8",
      "meta": {
        "profile": [ "https://www.medizininformatik-initiative.de/fhir/ext/modul-onko/StructureDefinition/mii-pr-onko-grading" ]
      },
      "identifier": [ {
        "system": "https://bzkf.github.io/obds-to-fhir/identifiers/grading-observation-id",
        "value": "54-grading"
      } ],
      "status": "final",
      "category": [ {
        "coding": [ {
          "system": "http://terminology.hl7.org/CodeSystem/observation-category",
          "code": "laboratory"
        } ]
      } ],
      "code": {
        "coding": [ {
          "system": "http://loinc.org",
          "version": "2.80",
          "code": "33732-9",
          "display": "Histology grade [Identifier] in Cancer specimen"
        }, {
          "system": "http://snomed.info/sct",
          "version": "http://snomed.info/sct/900000000000207008/version/20250501",
          "code": "371469007",
          "display": "Histologic grade of neoplasm (observable entity)"
        } ]
      },
      "subject": {
        "reference": "Patient/43d8d22e39e073fbb83f221071d60fe92e947d234ada77f7401d0eb4d230a849"
      },
      "focus": [ {
        "reference": "Condition/60c7c9e7ec920151bab3675602c2c7653c354b96d9b5bcdda96151fc7d6dca06"
      } ],
      "effectiveDateTime": "2022-10-16",
      "valueCodeableConcept": {
        "coding": [ {
          "system": "https://www.medizininformatik-initiative.de/fhir/ext/modul-onko/CodeSystem/mii-cs-onko-grading",
          "code": "3"
        } ]
      },
      "specimen": {
        "reference": "Specimen/ce61305b9676650bf63e434b8504ca3851677155a6d471328210b35d4e1637c7"
      }
    },
    "request": {
      "method": "PUT",
      "url": "Observation/0c3247797f283c23fed499dffafc570fbdb6787d732ce735fc6aeb18ed8ab3b8"
    }
  }, {
    "fullUrl": "Observation/8495cf75cb3fd2d2fd1cbcc90bdb97ad7ec9472121e145d43423dbd525494152",
    "resource": {
      "resourceType": "Observation",
      "id": "8495cf75cb3fd2d2fd1cbcc90bdb97ad7ec9472121e145d43423dbd525494152",
      "meta": {
        "profile": [ "https://www.medizininformatik-initiative.de/fhir/ext/modul-onko/StructureDefinition/mii-pr-onko-tnm-t-kategorie" ]
      },
      "identifier": [ {
        "system": "https://bzkf.github.io/obds-to-fhir/identifiers/tnm-t-kategorie-observation-id",
        "value": "49-2022-10-16-T"
      } ],
      "status": "final",
      "code": {
        "extension": [ {
          "url": "https://www.medizininformatik-initiative.de/fhir/ext/modul-onko/StructureDefinition/mii-ex-onko-tnm-cp-praefix",
          "valueCodeableConcept": {
            "coding": [ {
              "system": "https://www.uicc.org/resources/tnm",
              "code": "p"
            } ]
          }
        } ],
        "coding": [ {
          "system": "http://snomed.info/sct",
          "version": "http://snomed.info/sct/900000000000207008/version/20250501",
          "code": "384625004",
          "display": "pT category (observable entity)"
        } ]
      },
      "subject": {
        "reference": "Patient/43d8d22e39e073fbb83f221071d60fe92e947d234ada77f7401d0eb4d230a849"
      },
      "focus": [ {
        "reference": "Condition/60c7c9e7ec920151bab3675602c2c7653c354b96d9b5bcdda96151fc7d6dca06"
      } ],
      "effectiveDateTime": "2022-10-16",
      "valueCodeableConcept": {
        "coding": [ {
          "system": "https://www.uicc.org/resources/tnm",
          "code": "Tis"
        } ]
      },
      "method": {
        "coding": [ {
          "system": "https://www.medizininformatik-initiative.de/fhir/ext/modul-onko/CodeSystem/mii-cs-onko-tnm-version",
          "code": "8"
        } ]
      }
    },
    "request": {
      "method": "PUT",
      "url": "Observation/8495cf75cb3fd2d2fd1cbcc90bdb97ad7ec9472121e145d43423dbd525494152"
    }
  }, {
    "fullUrl": "Observation/0b95cb19c14e0ea38a35bfa9ecab094aa5b656427f54bcf27ce57c039ce541f0",
    "resource": {
      "resourceType": "Observation",
      "id": "0b95cb19c14e0ea38a35bfa9ecab094aa5b656427f54bcf27ce57c039ce541f0",
      "meta": {
        "profile": [ "https://www.medizininformatik-initiative.de/fhir/ext/modul-onko/StructureDefinition/mii-pr-onko-tnm-klassifikation" ]
      },
      "identifier": [ {
        "system": "https://bzkf.github.io/obds-to-fhir/identifiers/tnm-grouping-observation-id",
        "value": "49-2022-10-16"
      } ],
      "status": "final",
      "code": {
        "coding": [ {
          "system": "http://snomed.info/sct",
          "version": "http://snomed.info/sct/900000000000207008/version/20250501",
          "code": "399390009",
          "display": "TNM stage grouping"
        } ]
      },
      "subject": {
        "reference": "Patient/43d8d22e39e073fbb83f221071d60fe92e947d234ada77f7401d0eb4d230a849"
      },
      "focus": [ {
        "reference": "Condition/60c7c9e7ec920151bab3675602c2c7653c354b96d9b5bcdda96151fc7d6dca06"
      } ],
      "effectiveDateTime": "2022-10-16",
      "valueCodeableConcept": {
        "coding": [ {
          "system": "https://www.uicc.org/resources/tnm",
          "code": "0",
          "display": "Stadium 0"
        } ]
      },
      "method": {
        "coding": [ {
          "system": "https://www.medizininformatik-initiative.de/fhir/ext/modul-onko/CodeSystem/mii-cs-onko-tnm-version",
          "code": "8"
        } ]
      },
      "hasMember": [ {
        "reference": "Observation/8495cf75cb3fd2d2fd1cbcc90bdb97ad7ec9472121e145d43423dbd525494152"
      } ]
    },
    "request": {
      "method": "PUT",
      "url": "Observation/0b95cb19c14e0ea38a35bfa9ecab094aa5b656427f54bcf27ce57c039ce541f0"
    }
  }, {
    "fullUrl": "Observation/ee9229bfb55adfac28d31404e6774949fe5f9e3e9f3a3a7c6c0e987a1e192d62",
    "resource": {
      "resourceType": "Observation",
      "id": "ee9229bfb55adfac28d31404e6774949fe5f9e3e9f3a3a7c6c0e987a1e192d62",
      "meta": {
        "profile": [ "https://www.medizininformatik-initiative.de/fhir/ext/modul-onko/StructureDefinition/mii-pr-onko-allgemeiner-leistungszustand-ecog" ]
      },
      "identifier": [ {
        "system": "https://bzkf.github.io/obds-to-fhir/identifiers/allgemeiner-leistungszustand-ecog-id",
        "value": "ECOG-10_5_DI_1"
      } ],
      "status": "final",
      "code": {
        "coding": [ {
          "system": "http://snomed.info/sct",
          "version": "http://snomed.info/sct/900000000000207008/version/20250501",
          "code": "423740007",
          "display": "Eastern Cooperative Oncology Group performance status (observable entity)"
        } ]
      },
      "subject": {
        "reference": "Patient/43d8d22e39e073fbb83f221071d60fe92e947d234ada77f7401d0eb4d230a849"
      },
      "focus": [ {
        "reference": "Condition/60c7c9e7ec920151bab3675602c2c7653c354b96d9b5bcdda96151fc7d6dca06"
      } ],
      "effectiveDateTime": "2022-10-02",
      "valueCodeableConcept": {
        "coding": [ {
          "system": "https://www.medizininformatik-initiative.de/fhir/ext/modul-onko/CodeSystem/mii-cs-onko-allgemeiner-leistungszustand-ecog",
          "code": "0",
          "display": "Normale, uneingeschränkte Aktivität wie vor der Erkrankung (90 - 100 % nach Karnofsky)"
        } ]
      }
    },
    "request": {
      "method": "PUT",
      "url": "Observation/ee9229bfb55adfac28d31404e6774949fe5f9e3e9f3a3a7c6c0e987a1e192d62"
    }
  }, {
    "fullUrl": "Specimen/b84f470206bc2bced7ec56e0896b2a16bf99abe9141247003b41cbb658a132ef",
    "resource": {
      "resourceType": "Specimen",
      "id": "b84f470206bc2bced7ec56e0896b2a16bf99abe9141247003b41cbb658a132ef",
      "meta": {
        "profile": [ "https://www.medizininformatik-initiative.de/fhir/ext/modul-onko/StructureDefinition/mii-pr-onko-specimen" ]
      },
      "identifier": [ {
        "system": "https://bzkf.github.io/obds-to-fhir/identifiers/histologie-specimen-id",
        "value": "53"
      } ],
      "accessionIdentifier": {
        "value": "X/98765/1"
      },
      "subject": {
        "reference": "Patient/43d8d22e39e073fbb83f221071d60fe92e947d234ada77f7401d0eb4d230a849"
      },
      "collection": {
        "collectedDateTime": "2022-10-03"
      }
    },
    "request": {
      "method": "PUT",
      "url": "Specimen/b84f470206bc2bced7ec56e0896b2a16bf99abe9141247003b41cbb658a132ef"
    }
  }, {
    "fullUrl": "Observation/e635685c1dd8eccfb98195fbf658b3880e72664d04be47cedf02aa55d311a7d2",
    "resource": {
      "resourceType": "Observation",
      "id": "e635685c1dd8eccfb98195fbf658b3880e72664d04be47cedf02aa55d311a7d2",
      "meta": {
        "profile": [ "https://www.medizininformatik-initiative.de/fhir/ext/modul-onko/StructureDefinition/mii-pr-onko-grading" ]
      },
      "identifier": [ {
        "system": "https://bzkf.github.io/obds-to-fhir/identifiers/grading-observation-id",
        "value": "53-grading"
      } ],
      "status": "final",
      "category": [ {
        "coding": [ {
          "system": "http://terminology.hl7.org/CodeSystem/observation-category",
          "code": "laboratory"
        } ]
      } ],
      "code": {
        "coding": [ {
          "system": "http://loinc.org",
          "version": "2.80",
          "code": "33732-9",
          "display": "Histology grade [Identifier] in Cancer specimen"
        }, {
          "system": "http://snomed.info/sct",
          "version": "http://snomed.info/sct/900000000000207008/version/20250501",
          "code": "371469007",
          "display": "Histologic grade of neoplasm (observable entity)"
        } ]
      },
      "subject": {
        "reference": "Patient/43d8d22e39e073fbb83f221071d60fe92e947d234ada77f7401d0eb4d230a849"
      },
      "focus": [ {
        "reference": "Condition/60c7c9e7ec920151bab3675602c2c7653c354b96d9b5bcdda96151fc7d6dca06"
      } ],
      "effectiveDateTime": "2022-10-03",
      "valueCodeableConcept": {
        "coding": [ {
          "system": "https://www.medizininformatik-initiative.de/fhir/ext/modul-onko/CodeSystem/mii-cs-onko-grading",
          "code": "3"
        } ]
      },
      "specimen": {
        "reference": "Specimen/b84f470206bc2bced7ec56e0896b2a16bf99abe9141247003b41cbb658a132ef"
      }
    },
    "request": {
      "method": "PUT",
      "url": "Observation/e635685c1dd8eccfb98195fbf658b3880e72664d04be47cedf02aa55d311a7d2"
    }
  }, {
    "fullUrl": "Observation/a4f48c0d03fd5a64e824a2212358ffd1c5ce291d1ae5b32acc0006e86fe6c701",
    "resource": {
      "resourceType": "Observation",
      "id": "a4f48c0d03fd5a64e824a2212358ffd1c5ce291d1ae5b32acc0006e86fe6c701",
      "meta": {
        "profile": [ "https://www.medizininformatik-initiative.de/fhir/ext/modul-onko/StructureDefinition/mii-pr-onko-studienteilnahme" ]
      },
      "identifier": [ {
        "system": "https://bzkf.github.io/obds-to-fhir/identifiers/studienteilnahme-observation-id",
        "value": "10_5_DI_1-Studienteilnahme"
      } ],
      "status": "final",
      "code": {
        "coding": [ {
          "system": "http://snomed.info/sct",
          "version": "http://snomed.info/sct/900000000000207008/version/20250501",
          "code": "709491003",
          "display": "Enrollment in clinical trial (procedure)"
        } ]
      },
      "subject": {
        "reference": "Patient/43d8d22e39e073fbb83f221071d60fe92e947d234ada77f7401d0eb4d230a849"
      },
      "focus": [ {
        "reference": "Condition/60c7c9e7ec920151bab3675602c2c7653c354b96d9b5bcdda96151fc7d6dca06"
      } ],
      "valueCodeableConcept": {
        "coding": [ {
          "system": "https://www.medizininformatik-initiative.de/fhir/ext/modul-onko/CodeSystem/mii-cs-onko-studienteilnahme",
          "code": "N"
        } ]
      }
    },
    "request": {
      "method": "PUT",
      "url": "Observation/a4f48c0d03fd5a64e824a2212358ffd1c5ce291d1ae5b32acc0006e86fe6c701"
    }
  }, {
    "fullUrl": "Observation/b2a33dde82696183eed1687a5001f465b0c5c2bf734bac1d903a634d29c918a5",
    "resource": {
      "resourceType": "Observation",
      "id": "b2a33dde82696183eed1687a5001f465b0c5c2bf734bac1d903a634d29c918a5",
      "meta": {
        "profile": [ "https://www.medizininformatik-initiative.de/fhir/ext/modul-onko/StructureDefinition/mii-pr-onko-tnm-t-kategorie" ]
      },
      "identifier": [ {
        "system": "https://bzkf.github.io/obds-to-fhir/identifiers/tnm-t-kategorie-observation-id",
        "value": "47-c-2022-10-02-T"
      } ],
      "status": "final",
      "code": {
        "extension": [ {
          "url": "https://www.medizininformatik-initiative.de/fhir/ext/modul-onko/StructureDefinition/mii-ex-onko-tnm-cp-praefix",
          "valueCodeableConcept": {
            "coding": [ {
              "system": "https://www.uicc.org/resources/tnm",
              "code": "c"
            } ]
          }
        } ],
        "coding": [ {
          "system": "http://snomed.info/sct",
          "version": "http://snomed.info/sct/900000000000207008/version/20250501",
          "code": "399504009",
          "display": "cT category (observable entity)"
        } ]
      },
      "subject": {
        "reference": "Patient/43d8d22e39e073fbb83f221071d60fe92e947d234ada77f7401d0eb4d230a849"
      },
      "focus": [ {
        "reference": "Condition/60c7c9e7ec920151bab3675602c2c7653c354b96d9b5bcdda96151fc7d6dca06"
      } ],
      "effectiveDateTime": "2022-10-02",
      "valueCodeableConcept": {
        "coding": [ {
          "system": "https://www.uicc.org/resources/tnm",
          "code": "Tis"
        } ]
      },
      "method": {
        "coding": [ {
          "system": "https://www.medizininformatik-initiative.de/fhir/ext/modul-onko/CodeSystem/mii-cs-onko-tnm-version",
          "code": "8"
        } ]
      }
    },
    "request": {
      "method": "PUT",
      "url": "Observation/b2a33dde82696183eed1687a5001f465b0c5c2bf734bac1d903a634d29c918a5"
    }
  }, {
    "fullUrl": "Observation/3e5226d4d1fdec9f0ca065ab1a62155ddb887ccd76b626e3fcca841f8f3530e6",
    "resource": {
      "resourceType": "Observation",
      "id": "3e5226d4d1fdec9f0ca065ab1a62155ddb887ccd76b626e3fcca841f8f3530e6",
      "meta": {
        "profile": [ "https://www.medizininformatik-initiative.de/fhir/ext/modul-onko/StructureDefinition/mii-pr-onko-tnm-n-kategorie" ]
      },
      "identifier": [ {
        "system": "https://bzkf.github.io/obds-to-fhir/identifiers/tnm-n-kategorie-observation-id",
        "value": "47-c-2022-10-02-N"
      } ],
      "status": "final",
      "code": {
        "extension": [ {
          "url": "https://www.medizininformatik-initiative.de/fhir/ext/modul-onko/StructureDefinition/mii-ex-onko-tnm-cp-praefix",
          "valueCodeableConcept": {
            "coding": [ {
              "system": "https://www.uicc.org/resources/tnm",
              "code": "c"
            } ]
          }
        } ],
        "coding": [ {
          "system": "http://snomed.info/sct",
          "version": "http://snomed.info/sct/900000000000207008/version/20250501",
          "code": "399534004",
          "display": "cN category (observable entity)"
        } ]
      },
      "subject": {
        "reference": "Patient/43d8d22e39e073fbb83f221071d60fe92e947d234ada77f7401d0eb4d230a849"
      },
      "focus": [ {
        "reference": "Condition/60c7c9e7ec920151bab3675602c2c7653c354b96d9b5bcdda96151fc7d6dca06"
      } ],
      "effectiveDateTime": "2022-10-02",
      "valueCodeableConcept": {
        "coding": [ {
          "system": "https://www.uicc.org/resources/tnm",
          "code": "N0"
        } ]
      },
      "method": {
        "coding": [ {
          "system": "https://www.medizininformatik-initiative.de/fhir/ext/modul-onko/CodeSystem/mii-cs-onko-tnm-version",
          "code": "8"
        } ]
      }
    },
    "request": {
      "method": "PUT",
      "url": "Observation/3e5226d4d1fdec9f0ca065ab1a62155ddb887ccd76b626e3fcca841f8f3530e6"
    }
  }, {
    "fullUrl": "Observation/1271d67215be0141faed11dd9f11d94c9a153c0d6e46e679c10431c6a8014e77",
    "resource": {
      "resourceType": "Observation",
      "id": "1271d67215be0141faed11dd9f11d94c9a153c0d6e46e679c10431c6a8014e77",
      "meta": {
        "profile": [ "https://www.medizininformatik-initiative.de/fhir/ext/modul-onko/StructureDefinition/mii-pr-onko-tnm-m-kategorie" ]
      },
      "identifier": [ {
        "system": "https://bzkf.github.io/obds-to-fhir/identifiers/tnm-m-kategorie-observation-id",
        "value": "47-c-2022-10-02-M"
      } ],
      "status": "final",
      "code": {
        "extension": [ {
          "url": "https://www.medizininformatik-initiative.de/fhir/ext/modul-onko/StructureDefinition/mii-ex-onko-tnm-cp-praefix",
          "valueCodeableConcept": {
            "coding": [ {
              "system": "https://www.uicc.org/resources/tnm",
              "code": "c"
            } ]
          }
        } ],
        "coding": [ {
          "system": "http://snomed.info/sct",
          "version": "http://snomed.info/sct/900000000000207008/version/20250501",
          "code": "399387003",
          "display": "cM category (observable entity)"
        } ]
      },
      "subject": {
        "reference": "Patient/43d8d22e39e073fbb83f221071d60fe92e947d234ada77f7401d0eb4d230a849"
      },
      "focus": [ {
        "reference": "Condition/60c7c9e7ec920151bab3675602c2c7653c354b96d9b5bcdda96151fc7d6dca06"
      } ],
      "effectiveDateTime": "2022-10-02",
      "valueCodeableConcept": {
        "coding": [ {
          "system": "https://www.uicc.org/resources/tnm",
          "code": "M0"
        } ]
      },
      "method": {
        "coding": [ {
          "system": "https://www.medizininformatik-initiative.de/fhir/ext/modul-onko/CodeSystem/mii-cs-onko-tnm-version",
          "code": "8"
        } ]
      }
    },
    "request": {
      "method": "PUT",
      "url": "Observation/1271d67215be0141faed11dd9f11d94c9a153c0d6e46e679c10431c6a8014e77"
    }
  }, {
    "fullUrl": "Observation/81eefe82fa892650e38fda2cc24fe3c465a9b7ded353761d1020253b56fbe3a9",
    "resource": {
      "resourceType": "Observation",
      "id": "81eefe82fa892650e38fda2cc24fe3c465a9b7ded353761d1020253b56fbe3a9",
      "meta": {
        "profile": [ "https://www.medizininformatik-initiative.de/fhir/ext/modul-onko/StructureDefinition/mii-pr-onko-tnm-klassifikation" ]
      },
      "identifier": [ {
        "system": "https://bzkf.github.io/obds-to-fhir/identifiers/tnm-grouping-observation-id",
        "value": "47-c-2022-10-02"
      } ],
      "status": "final",
      "code": {
        "coding": [ {
          "system": "http://snomed.info/sct",
          "version": "http://snomed.info/sct/900000000000207008/version/20250501",
          "code": "399537006",
          "display": "Clinical TNM stage grouping"
        } ]
      },
      "subject": {
        "reference": "Patient/43d8d22e39e073fbb83f221071d60fe92e947d234ada77f7401d0eb4d230a849"
      },
      "focus": [ {
        "reference": "Condition/60c7c9e7ec920151bab3675602c2c7653c354b96d9b5bcdda96151fc7d6dca06"
      } ],
      "effectiveDateTime": "2022-10-02",
      "valueCodeableConcept": {
        "coding": [ {
          "system": "https://www.uicc.org/resources/tnm",
          "code": "0",
          "display": "Stadium 0"
        } ]
      },
      "method": {
        "coding": [ {
          "system": "https://www.medizininformatik-initiative.de/fhir/ext/modul-onko/CodeSystem/mii-cs-onko-tnm-version",
          "code": "8"
        } ]
      },
      "hasMember": [ {
        "reference": "Observation/b2a33dde82696183eed1687a5001f465b0c5c2bf734bac1d903a634d29c918a5"
      }, {
        "reference": "Observation/3e5226d4d1fdec9f0ca065ab1a62155ddb887ccd76b626e3fcca841f8f3530e6"
      }, {
        "reference": "Observation/1271d67215be0141faed11dd9f11d94c9a153c0d6e46e679c10431c6a8014e77"
      } ]
    },
    "request": {
      "method": "PUT",
      "url": "Observation/81eefe82fa892650e38fda2cc24fe3c465a9b7ded353761d1020253b56fbe3a9"
    }
  }, {
    "fullUrl": "Observation/ae44c22b4faeb1bf9b40fc76137498ab8085a6ded87fea2e8190e2deac611f6d",
    "resource": {
      "resourceType": "Observation",
      "id": "ae44c22b4faeb1bf9b40fc76137498ab8085a6ded87fea2e8190e2deac611f6d",
      "meta": {
        "profile": [ "https://www.medizininformatik-initiative.de/fhir/ext/modul-onko/StructureDefinition/mii-pr-onko-tnm-t-kategorie" ]
      },
      "identifier": [ {
        "system": "https://bzkf.github.io/obds-to-fhir/identifiers/tnm-t-kategorie-observation-id",
        "value": "48-p-2022-10-03-T"
      } ],
      "status": "final",
      "code": {
        "extension": [ {
          "url": "https://www.medizininformatik-initiative.de/fhir/ext/modul-onko/StructureDefinition/mii-ex-onko-tnm-cp-praefix",
          "valueCodeableConcept": {
            "coding": [ {
              "system": "https://www.uicc.org/resources/tnm",
              "code": "p"
            } ]
          }
        } ],
        "coding": [ {
          "system": "http://snomed.info/sct",
          "version": "http://snomed.info/sct/900000000000207008/version/20250501",
          "code": "384625004",
          "display": "pT category (observable entity)"
        } ]
      },
      "subject": {
        "reference": "Patient/43d8d22e39e073fbb83f221071d60fe92e947d234ada77f7401d0eb4d230a849"
      },
      "focus": [ {
        "reference": "Condition/60c7c9e7ec920151bab3675602c2c7653c354b96d9b5bcdda96151fc7d6dca06"
      } ],
      "effectiveDateTime": "2022-10-03",
      "valueCodeableConcept": {
        "coding": [ {
          "system": "https://www.uicc.org/resources/tnm",
          "code": "Tis"
        } ]
      },
      "method": {
        "coding": [ {
          "system": "https://www.medizininformatik-initiative.de/fhir/ext/modul-onko/CodeSystem/mii-cs-onko-tnm-version",
          "code": "8"
        } ]
      }
    },
    "request": {
      "method": "PUT",
      "url": "Observation/ae44c22b4faeb1bf9b40fc76137498ab8085a6ded87fea2e8190e2deac611f6d"
    }
  }, {
    "fullUrl": "Observation/aa000c11676ac092e880ee2fb98e530c44d7bcfe51d500ccf3064f265cc4af43",
    "resource": {
      "resourceType": "Observation",
      "id": "aa000c11676ac092e880ee2fb98e530c44d7bcfe51d500ccf3064f265cc4af43",
      "meta": {
        "profile": [ "https://www.medizininformatik-initiative.de/fhir/ext/modul-onko/StructureDefinition/mii-pr-onko-tnm-n-kategorie" ]
      },
      "identifier": [ {
        "system": "https://bzkf.github.io/obds-to-fhir/identifiers/tnm-n-kategorie-observation-id",
        "value": "48-p-2022-10-03-N"
      } ],
      "status": "final",
      "code": {
        "extension": [ {
          "url": "https://www.medizininformatik-initiative.de/fhir/ext/modul-onko/StructureDefinition/mii-ex-onko-tnm-cp-praefix",
          "valueCodeableConcept": {
            "coding": [ {
              "system": "https://www.uicc.org/resources/tnm",
              "code": "c"
            } ]
          }
        } ],
        "coding": [ {
          "system": "http://snomed.info/sct",
          "version": "http://snomed.info/sct/900000000000207008/version/20250501",
          "code": "399534004",
          "display": "cN category (observable entity)"
        } ]
      },
      "subject": {
        "reference": "Patient/43d8d22e39e073fbb83f221071d60fe92e947d234ada77f7401d0eb4d230a849"
      },
      "focus": [ {
        "reference": "Condition/60c7c9e7ec920151bab3675602c2c7653c354b96d9b5bcdda96151fc7d6dca06"
      } ],
      "effectiveDateTime": "2022-10-03",
      "valueCodeableConcept": {
        "coding": [ {
          "system": "https://www.uicc.org/resources/tnm",
          "code": "N0"
        } ]
      },
      "method": {
        "coding": [ {
          "system": "https://www.medizininformatik-initiative.de/fhir/ext/modul-onko/CodeSystem/mii-cs-onko-tnm-version",
          "code": "8"
        } ]
      }
    },
    "request": {
      "method": "PUT",
      "url": "Observation/aa000c11676ac092e880ee2fb98e530c44d7bcfe51d500ccf3064f265cc4af43"
    }
  }, {
    "fullUrl": "Observation/395945dba62e91e37000e0fc2e27818bc93e2521890b4449361be272133e363f",
    "resource": {
      "resourceType": "Observation",
      "id": "395945dba62e91e37000e0fc2e27818bc93e2521890b4449361be272133e363f",
      "meta": {
        "profile": [ "https://www.medizininformatik-initiative.de/fhir/ext/modul-onko/StructureDefinition/mii-pr-onko-tnm-m-kategorie" ]
      },
      "identifier": [ {
        "system": "https://bzkf.github.io/obds-to-fhir/identifiers/tnm-m-kategorie-observation-id",
        "value": "48-p-2022-10-03-M"
      } ],
      "status": "final",
      "code": {
        "extension": [ {
          "url": "https://www.medizininformatik-initiative.de/fhir/ext/modul-onko/StructureDefinition/mii-ex-onko-tnm-cp-praefix",
          "valueCodeableConcept": {
            "coding": [ {
              "system": "https://www.uicc.org/resources/tnm",
              "code": "c"
            } ]
          }
        } ],
        "coding": [ {
          "system": "http://snomed.info/sct",
          "version": "http://snomed.info/sct/900000000000207008/version/20250501",
          "code": "399387003",
          "display": "cM category (observable entity)"
        } ]
      },
      "subject": {
        "reference": "Patient/43d8d22e39e073fbb83f221071d60fe92e947d234ada77f7401d0eb4d230a849"
      },
      "focus": [ {
        "reference": "Condition/60c7c9e7ec920151bab3675602c2c7653c354b96d9b5bcdda96151fc7d6dca06"
      } ],
      "effectiveDateTime": "2022-10-03",
      "valueCodeableConcept": {
        "coding": [ {
          "system": "https://www.uicc.org/resources/tnm",
          "code": "M0"
        } ]
      },
      "method": {
        "coding": [ {
          "system": "https://www.medizininformatik-initiative.de/fhir/ext/modul-onko/CodeSystem/mii-cs-onko-tnm-version",
          "code": "8"
        } ]
      }
    },
    "request": {
      "method": "PUT",
      "url": "Observation/395945dba62e91e37000e0fc2e27818bc93e2521890b4449361be272133e363f"
    }
  }, {
    "fullUrl": "Observation/ac3003c1ebfdc2c41470d18d662f88b416b202b348a2862441652a89f767335b",
    "resource": {
      "resourceType": "Observation",
      "id": "ac3003c1ebfdc2c41470d18d662f88b416b202b348a2862441652a89f767335b",
      "meta": {
        "profile": [ "https://www.medizininformatik-initiative.de/fhir/ext/modul-onko/StructureDefinition/mii-pr-onko-tnm-klassifikation" ]
      },
      "identifier": [ {
        "system": "https://bzkf.github.io/obds-to-fhir/identifiers/tnm-grouping-observation-id",
        "value": "48-p-2022-10-03"
      } ],
      "status": "final",
      "code": {
        "coding": [ {
          "system": "http://snomed.info/sct",
          "version": "http://snomed.info/sct/900000000000207008/version/20250501",
          "code": "399588009",
          "display": "Pathologic TNM stage grouping"
        } ]
      },
      "subject": {
        "reference": "Patient/43d8d22e39e073fbb83f221071d60fe92e947d234ada77f7401d0eb4d230a849"
      },
      "focus": [ {
        "reference": "Condition/60c7c9e7ec920151bab3675602c2c7653c354b96d9b5bcdda96151fc7d6dca06"
      } ],
      "effectiveDateTime": "2022-10-03",
      "valueCodeableConcept": {
        "coding": [ {
          "system": "https://www.uicc.org/resources/tnm",
          "code": "0",
          "display": "Stadium 0"
        } ]
      },
      "method": {
        "coding": [ {
          "system": "https://www.medizininformatik-initiative.de/fhir/ext/modul-onko/CodeSystem/mii-cs-onko-tnm-version",
          "code": "8"
        } ]
      },
      "hasMember": [ {
        "reference": "Observation/ae44c22b4faeb1bf9b40fc76137498ab8085a6ded87fea2e8190e2deac611f6d"
      }, {
        "reference": "Observation/aa000c11676ac092e880ee2fb98e530c44d7bcfe51d500ccf3064f265cc4af43"
      }, {
        "reference": "Observation/395945dba62e91e37000e0fc2e27818bc93e2521890b4449361be272133e363f"
      } ]
    },
    "request": {
      "method": "PUT",
      "url": "Observation/ac3003c1ebfdc2c41470d18d662f88b416b202b348a2862441652a89f767335b"
    }
  }, {
    "fullUrl": "List/d1c7f88bae7347ce3687489f726bb619b240436ae19c7c5189a8d57de8b4c5c8",
    "resource": {
      "resourceType": "List",
      "id": "d1c7f88bae7347ce3687489f726bb619b240436ae19c7c5189a8d57de8b4c5c8",
      "meta": {
        "profile": [ "https://www.medizininformatik-initiative.de/fhir/ext/modul-onko/StructureDefinition/mii-pr-onko-liste-evidenz-erstdiagnose" ]
      },
      "identifier": [ {
        "system": "https://bzkf.github.io/obds-to-fhir/identifiers/erstdiagnose-evidenz-list-id",
        "value": "19-195"
      } ],
      "status": "current",
      "mode": "snapshot",
      "title": "Liste der Evidenz zum Erstdiagnosezeitpunkt",
      "subject": {
        "reference": "Patient/43d8d22e39e073fbb83f221071d60fe92e947d234ada77f7401d0eb4d230a849"
      },
      "entry": [ {
        "item": {
          "reference": "Observation/ee9229bfb55adfac28d31404e6774949fe5f9e3e9f3a3a7c6c0e987a1e192d62"
        }
      }, {
        "item": {
          "reference": "Observation/e635685c1dd8eccfb98195fbf658b3880e72664d04be47cedf02aa55d311a7d2"
        }
      }, {
        "item": {
          "reference": "Observation/a4f48c0d03fd5a64e824a2212358ffd1c5ce291d1ae5b32acc0006e86fe6c701"
        }
      }, {
        "item": {
          "reference": "Observation/b2a33dde82696183eed1687a5001f465b0c5c2bf734bac1d903a634d29c918a5"
        }
      }, {
        "item": {
          "reference": "Observation/3e5226d4d1fdec9f0ca065ab1a62155ddb887ccd76b626e3fcca841f8f3530e6"
        }
      }, {
        "item": {
          "reference": "Observation/1271d67215be0141faed11dd9f11d94c9a153c0d6e46e679c10431c6a8014e77"
        }
      }, {
        "item": {
          "reference": "Observation/81eefe82fa892650e38fda2cc24fe3c465a9b7ded353761d1020253b56fbe3a9"
        }
      }, {
        "item": {
          "reference": "Observation/ae44c22b4faeb1bf9b40fc76137498ab8085a6ded87fea2e8190e2deac611f6d"
        }
      }, {
        "item": {
          "reference": "Observation/aa000c11676ac092e880ee2fb98e530c44d7bcfe51d500ccf3064f265cc4af43"
        }
      }, {
        "item": {
          "reference": "Observation/395945dba62e91e37000e0fc2e27818bc93e2521890b4449361be272133e363f"
        }
      }, {
        "item": {
          "reference": "Observation/ac3003c1ebfdc2c41470d18d662f88b416b202b348a2862441652a89f767335b"
        }
      } ]
    },
    "request": {
      "method": "PUT",
      "url": "List/d1c7f88bae7347ce3687489f726bb619b240436ae19c7c5189a8d57de8b4c5c8"
    }
  }, {
    "fullUrl": "Condition/2c354fb45e5691c7a6f7e33efdac34a8f29d80c93fc21339191d8fdf7b53b17e",
    "resource": {
      "resourceType": "Condition",
      "id": "2c354fb45e5691c7a6f7e33efdac34a8f29d80c93fc21339191d8fdf7b53b17e",
      "meta": {
        "profile": [ "https://www.medizininformatik-initiative.de/fhir/ext/modul-onko/StructureDefinition/mii-pr-onko-fruehere-tumorerkrankung" ]
      },
      "extension": [ {
        "url": "http://hl7.org/fhir/StructureDefinition/condition-assertedDate",
        "valueDateTime": "2013"
      } ],
      "identifier": [ {
        "system": "https://bzkf.github.io/obds-to-fhir/identifiers/fruehere-tumorerkrankung-condition-id",
        "value": "19-195-C50-9-2013"
      } ],
      "category": [ {
        "coding": [ {
          "system": "http://snomed.info/sct",
          "version": "http://snomed.info/sct/900000000000207008/version/20250501",
          "code": "394593009",
          "display": "Medical oncology (qualifier value)"
        } ]
      } ],
      "code": {
        "coding": [ {
          "system": "http://fhir.de/CodeSystem/bfarm/icd-10-gm",
          "version": "2013",
          "code": "C50.9"
        } ],
        "text": "Mamma-Ca, links"
      },
      "subject": {
        "reference": "Patient/43d8d22e39e073fbb83f221071d60fe92e947d234ada77f7401d0eb4d230a849"
      },
      "recordedDate": "2024-04-22"
    },
    "request": {
      "method": "PUT",
      "url": "Condition/2c354fb45e5691c7a6f7e33efdac34a8f29d80c93fc21339191d8fdf7b53b17e"
    }
  } ]
}