{
  "resourceType": "Bundle",
  "id": "43d8d22e39e073fbb83f221071d60fe92e947d234ada77f7401d0eb4d230a849",
  "type": "transaction",
  "entry": [ {
    "fullUrl": "Patient/43d8d22e39e073fbb83f221071d60fe92e947d234ada77f7401d0eb4d230a849",
    "resource": {
      "resourceType": "Patient",
      "id": "43d8d22e39e073fbb83f221071d60fe92e947d234ada77f7401d0eb4d230a849",
      "meta": {
        "profile": [ "https://www.medizininformatik-initiative.de/fhir/core/modul-person/StructureDefinition/PatientPseudonymisiert" ]
      },
      "identifier": [ {
        "type": {
          "coding": [ {
            "system": "http://terminology.hl7.org/CodeSystem/v2-0203",
            "code": "MR",
            "display": "Medical record number"
          }, {
            "system": "http://terminology.hl7.org/CodeSystem/v3-ObservationValue",
            "code": "PSEUDED",
            "display": "pseudonymized"
          } ]
        },
        "system": "https://bzkf.github.io/obds-to-fhir/identifiers/patient-id",
        "value": "19"
      } ],
      "gender": "female",
      "birthDate": "1950-05-01",
      "deceasedDateTime": "2023-09-01",
      "address": [ {
        "type": "both",
        "postalCode": "12345",
        "country": "DE"
      } ]
    },
    "request": {
      "method": "PUT",
      "url": "Patient/43d8d22e39e073fbb83f221071d60fe92e947d234ada77f7401d0eb4d230a849"
    }
  }, {
    "fullUrl": "Condition/60c7c9e7ec920151bab3675602c2c7653c354b96d9b5bcdda96151fc7d6dca06",
    "resource": {
      "resourceType": "Condition",
      "id": "60c7c9e7ec920151bab3675602c2c7653c354b96d9b5bcdda96151fc7d6dca06",
      "meta": {
        "profile": [ "https://www.medizininformatik-initiative.de/fhir/ext/modul-onko/StructureDefinition/mii-pr-onko-diagnose-primaertumor" ]
      },
      "extension": [ {
        "url": "https://www.medizininformatik-initiative.de/fhir/ext/modul-onko/StructureDefinition/mii-ex-onko-histology-morphology-behavior-icdo3",
        "valueCodeableConcept": {
          "coding": [ {
            "system": "http://terminology.hl7.org/CodeSystem/icd-o-3",
            "version": "33",
            "code": "8077/2"
          } ],
          "text": "Zervikale intraepitheliale Neoplasie Grad 3"
        }
      }, {
        "url": "http://hl7.org/fhir/StructureDefinition/condition-assertedDate",
        "valueDateTime": "2022-10-02"
      }, {
        "url": "http://hl7.org/fhir/StructureDefinition/condition-occurredFollowing",
        "valueReference": {
          "reference": "Condition/2c354fb45e5691c7a6f7e33efdac34a8f29d80c93fc21339191d8fdf7b53b17e"
        }
      } ],
      "identifier": [ {
        "system": "https://bzkf.github.io/obds-to-fhir/identifiers/primaerdiagnose-condition-id",
        "value": "19-195"
      } ],
      "verificationStatus": {
        "coding": [ {
          "system": "http://terminology.hl7.org/CodeSystem/condition-ver-status",
          "code": "confirmed"
        }, {
          "system": "https://www.medizininformatik-initiative.de/fhir/ext/modul-onko/CodeSystem/mii-cs-onko-primaertumor-diagnosesicherung",
          "code": "5"
        } ]
      },
      "code": {
        "coding": [ {
          "system": "http://fhir.de/CodeSystem/bfarm/icd-10-gm",
          "version": "2022",
          "code": "D06.9"
        } ]
      },
      "bodySite": [ {
        "coding": [ {
          "system": "http://terminology.hl7.org/CodeSystem/icd-o-3",
          "version": "33",
          "code": "C53.9"
        } ],
        "text": "Cervix uteri"
      }, {
        "coding": [ {
          "system": "https://www.medizininformatik-initiative.de/fhir/ext/modul-onko/CodeSystem/mii-cs-onko-seitenlokalisation",
          "code": "T"
        }, {
          "system": "http://snomed.info/sct",
          "version": "http://snomed.info/sct/900000000000207008/version/20250501",
          "code": "385432009",
          "display": "Not applicable (qualifier value)"
        } ]
      } ],
      "subject": {
        "reference": "Patient/43d8d22e39e073fbb83f221071d60fe92e947d234ada77f7401d0eb4d230a849"
      },
      "recordedDate": "2024-07-18",
      "evidence": [ {
        "detail": [ {
          "reference": "List/d1c7f88bae7347ce3687489f726bb619b240436ae19c7c5189a8d57de8b4c5c8"
        } ]
      } ]
    },
    "request": {
      "method": "PUT",
      "url": "Condition/60c7c9e7ec920151bab3675602c2c7653c354b96d9b5bcdda96151fc7d6dca06"
    }
  }, {
    "fullUrl": "Procedure/f262fc4be4c07c308f153fbd69986a8eb64e02545c1d25c9318e42df5ef91f7a",
    "resource": {
      "resourceType": "Procedure",
      "id": "f262fc4be4c07c308f153fbd69986a8eb64e02545c1d25c9318e42df5ef91f7a",
      "meta": {
        "profile": [ "https://www.medizininformatik-initiative.de/fhir/ext/modul-onko/StructureDefinition/mii-pr-onko-operation" ]
      },
      "extension": [ {
        "url": "https://www.medizininformatik-initiative.de/fhir/ext/modul-onko/StructureDefinition/mii-ex-onko-operation-intention",
        "valueCodeableConcept": {
          "coding": [ {
            "system": "https://www.medizininformatik-initiative.de/fhir/ext/modul-onko/CodeSystem/mii-cs-onko-intention",
            "code": "K"
          } ]
        }
      } ],
      "identifier": [ {
        "system": "https://bzkf.github.io/obds-to-fhir/identifiers/operation-procedure-id",
        "value": "214-5-671-01"
      } ],
      "status": "completed",
      "category": {
        "coding": [ {
          "system": "http://snomed.info/sct",
          "version": "http://snomed.info/sct/900000000000207008/version/20250501",
          "code": "387713003",
          "display": "Surgical procedure"
        } ]
      },
      "code": {
        "coding": [ {
          "system": "http://fhir.de/CodeSystem/bfarm/ops",
          "version": "2022",
          "code": "5-671.01"
        } ]
      },
      "subject": {
        "reference": "Patient/43d8d22e39e073fbb83f221071d60fe92e947d234ada77f7401d0eb4d230a849"
      },
      "performedDateTime": "2022-10-16",
      "reasonReference": [ {
        "reference": "Condition/60c7c9e7ec920151bab3675602c2c7653c354b96d9b5bcdda96151fc7d6dca06"
      } ],
      "outcome": {
        "coding": [ {
          "system": "https://www.medizininformatik-initiative.de/fhir/ext/modul-onko/CodeSystem/mii-cs-onko-residualstatus",
          "code": "R0"
        } ]
      }
    },
    "request": {
      "method": "PUT",
      "url": "Procedure/f262fc4be4c07c308f153fbd69986a8eb64e02545c1d25c9318e42df5ef91f7a"
    }
  }, {
    "fullUrl": "Observation/964182d74fc3cbd2407b9c39d10460f42727161beb591d47d6587cafa476be19",
    "resource": {
      "resourceType": "Observation",
      "id": "964182d74fc3cbd2407b9c39d10460f42727161beb591d47d6587cafa476be19",
      "meta": {
        "profile": [ "https://www.medizininformatik-initiative.de/fhir/ext/modul-onko/StructureDefinition/mii-pr-onko-residualstatus" ]
      },
      "identifier": [ {
        "system": "https://bzkf.github.io/obds-to-fhir/identifiers/residualstatus-observation-id",
        "value": "214"
      } ],
      "status": "final",
      "code": {
        "coding": [ {
          "system": "http://loinc.org",
          "version": "2.80",
          "code": "84892-9",
          "display": "Residual tumor classification [Type] in Cancer specimen"
        } ]
      },
      "subject": {
        "reference": "Patient/43d8d22e39e073fbb83f221071d60fe92e947d234ada77f7401d0eb4d230a849"
      },
      "focus": [ {
        "reference": "Condition/60c7c9e7ec920151bab3675602c2c7653c354b96d9b5bcdda96151fc7d6dca06"
      } ],
      "effectiveDateTime": "2022-10-16",
      "valueCodeableConcept": {
        "coding": [ {
          "system": "https://www.medizininformatik-initiative.de/fhir/ext/modul-onko/CodeSystem/mii-cs-onko-residualstatus",
          "code": "R0"
        } ]
      }
    },
    "request": {
      "method": "PUT",
      "url": "Observation/964182d74fc3cbd2407b9c39d10460f42727161beb591d47d6587cafa476be19"
    }
  }, {
    "fullUrl": "Specimen/097acda1b6047222ac3416023b94762da68b053084d7172abc8686fad9901418",
    "resource": {
      "resourceType": "Specimen",
      "id": "097acda1b6047222ac3416023b94762da68b053084d7172abc8686fad9901418",
      "meta": {
        "profile": [ "https://www.medizininformatik-initiative.de/fhir/ext/modul-onko/StructureDefinition/mii-pr-onko-specimen" ]
      },
      "identifier": [ {
        "system": "https://bzkf.github.io/obds-to-fhir/identifiers/histologie-specimen-id",
        "value": "366"
      } ],
      "accessionIdentifier": {
        "value": "X/98765/2"
      },
      "subject": {
        "reference": "Patient/43d8d22e39e073fbb83f221071d60fe92e947d234ada77f7401d0eb4d230a849"
      },
      "collection": {
        "collectedDateTime": "2022-10-16"
      }
    },
    "request": {
      "method": "PUT",
      "url": "Specimen/097acda1b6047222ac3416023b94762da68b053084d7172abc8686fad9901418"
    }
  }, {
    "fullUrl": "Observation/7dba18dc9220685fbf4e5fbe30852c0cd55d578097bbd45359b9af6546a8d142",
    "resource": {
      "resourceType": "Observation",
      "id": "7dba18dc9220685fbf4e5fbe30852c0cd55d578097bbd45359b9af6546a8d142",
      "meta": {
        "profile": [ "https://www.medizininformatik-initiative.de/fhir/ext/modul-onko/StructureDefinition/mii-pr-onko-histologie-icdo3" ]
      },
      "identifier": [ {
        "system": "https://bzkf.github.io/obds-to-fhir/identifiers/verlaufshistologie-observation-id",
        "value": "366-ICDO3-8077-2"
      } ],
      "status": "final",
      "code": {
        "coding": [ {
          "system": "http://loinc.org",
          "version": "2.80",
          "code": "59847-4",
          "display": "Histology and Behavior ICD-O-3 Cancer"
        } ]
      },
      "subject": {
        "reference": "Patient/43d8d22e39e073fbb83f221071d60fe92e947d234ada77f7401d0eb4d230a849"
      },
      "focus": [ {
        "reference": "Condition/60c7c9e7ec920151bab3675602c2c7653c354b96d9b5bcdda96151fc7d6dca06"
      } ],
      "effectiveDateTime": "2022-10-16",
      "valueCodeableConcept": {
        "coding": [ {
          "system": "http://terminology.hl7.org/CodeSystem/icd-o-3",
          "version": "33",
          "code": "8077/2"
        } ],
        "text": "Zervikale intraepitheliale Neoplasie Grad 3"
      },
      "specimen": {
        "reference": "Specimen/097acda1b6047222ac3416023b94762da68b053084d7172abc8686fad9901418"
      }
    },
    "request": {
      "method": "PUT",
      "url": "Observation/7dba18dc9220685fbf4e5fbe30852c0cd55d578097bbd45359b9af6546a8d142"
    }
  }, {
    "fullUrl": "Observation/776bd87eeec7e98757d56b42fbd951102297601d1bfd15877a7fe6fec06415fe",
    "resource": {
      "resourceType": "Observation",
      "id": "776bd87eeec7e98757d56b42fbd951102297601d1bfd15877a7fe6fec06415fe",
      "meta": {
        "profile": [ "https://www.medizininformatik-initiative.de/fhir/ext/modul-onko/StructureDefinition/mii-pr-onko-grading" ]
      },
      "identifier": [ {
        "system": "https://bzkf.github.io/obds-to-fhir/identifiers/grading-observation-id",
        "value": "366-grading"
      } ],
      "status": "final",
      "category": [ {
        "coding": [ {
          "system": "http://terminology.hl7.org/CodeSystem/observation-category",
          "code": "laboratory"
        } ]
      } ],
      "code": {
        "coding": [ {
          "system": "http://loinc.org",
          "version": "2.80",
          "code": "33732-9",
          "display": "Histology grade [Identifier] in Cancer specimen"
        }, {
          "system": "http://snomed.info/sct",
          "version": "http://snomed.info/sct/900000000000207008/version/20250501",
          "code": "371469007",
          "display": "Histologic grade of neoplasm (observable entity)"
        } ]
      },
      "subject": {
        "reference": "Patient/43d8d22e39e073fbb83f221071d60fe92e947d234ada77f7401d0eb4d230a849"
      },
      "focus": [ {
        "reference": "Condition/60c7c9e7ec920151bab3675602c2c7653c354b96d9b5bcdda96151fc7d6dca06"
      } ],
      "effectiveDateTime": "2022-10-16",
      "valueCodeableConcept": {
        "coding": [ {
          "system": "https://www.medizininformatik-initiative.de/fhir/ext/modul-onko/CodeSystem/mii-cs-onko-grading",
          "code": "T"
        } ]
      },
      "specimen": {
        "reference": "Specimen/097acda1b6047222ac3416023b94762da68b053084d7172abc8686fad9901418"
      }
    },
    "request": {
      "method": "PUT",
      "url": "Observation/776bd87eeec7e98757d56b42fbd951102297601d1bfd15877a7fe6fec06415fe"
    }
  }, {
    "fullUrl": "Observation/36b8266fa436d0a613278b408e9f3f0fbf5111dd03a40ac9d0a9a90959ba0608",
    "resource": {
      "resourceType": "Observation",
      "id": "36b8266fa436d0a613278b408e9f3f0fbf5111dd03a40ac9d0a9a90959ba0608",
      "meta": {
        "profile": [ "https://www.medizininformatik-initiative.de/fhir/ext/modul-onko/StructureDefinition/mii-pr-onko-tnm-t-kategorie" ]
      },
      "identifier": [ {
        "system": "https://bzkf.github.io/obds-to-fhir/identifiers/tnm-t-kategorie-observation-id",
        "value": "343-2022-10-16-T"
      } ],
      "status": "final",
      "code": {
        "extension": [ {
          "url": "https://www.medizininformatik-initiative.de/fhir/ext/modul-onko/StructureDefinition/mii-ex-onko-tnm-cp-praefix",
          "valueCodeableConcept": {
            "coding": [ {
              "system": "https://www.uicc.org/resources/tnm",
              "code": "p"
            } ]
          }
        } ],
        "coding": [ {
          "system": "http://snomed.info/sct",
          "version": "http://snomed.info/sct/900000000000207008/version/20250501",
          "code": "384625004",
          "display": "pT category (observable entity)"
        } ]
      },
      "subject": {
        "reference": "Patient/43d8d22e39e073fbb83f221071d60fe92e947d234ada77f7401d0eb4d230a849"
      },
      "focus": [ {
        "reference": "Condition/60c7c9e7ec920151bab3675602c2c7653c354b96d9b5bcdda96151fc7d6dca06"
      } ],
      "effectiveDateTime": "2022-10-16",
      "valueCodeableConcept": {
        "coding": [ {
          "system": "https://www.uicc.org/resources/tnm",
          "code": "Tis"
        } ]
      },
      "method": {
        "coding": [ {
          "system": "https://www.medizininformatik-initiative.de/fhir/ext/modul-onko/CodeSystem/mii-cs-onko-tnm-version",
          "code": "8"
        } ]
      }
    },
    "request": {
      "method": "PUT",
      "url": "Observation/36b8266fa436d0a613278b408e9f3f0fbf5111dd03a40ac9d0a9a90959ba0608"
    }
  }, {
    "fullUrl": "Observation/a78904555f28c587078fe1eec8dc3aee6a96f4508ce3b8f476c2ed845c883a50",
    "resource": {
      "resourceType": "Observation",
      "id": "a78904555f28c587078fe1eec8dc3aee6a96f4508ce3b8f476c2ed845c883a50",
      "meta": {
        "profile": [ "https://www.medizininformatik-initiative.de/fhir/ext/modul-onko/StructureDefinition/mii-pr-onko-tnm-klassifikation" ]
      },
      "identifier": [ {
        "system": "https://bzkf.github.io/obds-to-fhir/identifiers/tnm-grouping-observation-id",
        "value": "343-2022-10-16"
      } ],
      "status": "final",
      "code": {
        "coding": [ {
          "system": "http://snomed.info/sct",
          "version": "http://snomed.info/sct/900000000000207008/version/20250501",
          "code": "399390009",
          "display": "TNM stage grouping"
        } ]
      },
      "subject": {
        "reference": "Patient/43d8d22e39e073fbb83f221071d60fe92e947d234ada77f7401d0eb4d230a849"
      },
      "focus": [ {
        "reference": "Condition/60c7c9e7ec920151bab3675602c2c7653c354b96d9b5bcdda96151fc7d6dca06"
      } ],
      "effectiveDateTime": "2022-10-16",
      "valueCodeableConcept": {
        "coding": [ {
          "system": "https://www.uicc.org/resources/tnm",
          "code": "0",
          "display": "Stadium 0"
        } ]
      },
      "method": {
        "coding": [ {
          "system": "https://www.medizininformatik-initiative.de/fhir/ext/modul-onko/CodeSystem/mii-cs-onko-tnm-version",
          "code": "8"
        } ]
      },
      "hasMember": [ {
        "reference": "Observation/36b8266fa436d0a613278b408e9f3f0fbf5111dd03a40ac9d0a9a90959ba0608"
      } ]
    },
    "request": {
      "method": "PUT",
      "url": "Observation/a78904555f28c587078fe1eec8dc3aee6a96f4508ce3b8f476c2ed845c883a50"
    }
  }, {
    "fullUrl": "Observation/04b7cf22855942cf4043fa5b6b3d3c38306e88e55c7b732bb445c578b8ab7ee1",
    "resource": {
      "resourceType": "Observation",
      "id": "04b7cf22855942cf4043fa5b6b3d3c38306e88e55c7b732bb445c578b8ab7ee1",
      "meta": {
        "profile": [ "https://www.medizininformatik-initiative.de/fhir/ext/modul-onko/StructureDefinition/mii-pr-onko-verlauf" ]
      },
      "identifier": [ {
        "system": "https://bzkf.github.io/obds-to-fhir/identifiers/verlauf-observation-id",
        "value": "238"
      } ],
      "status": "final",
      "code": {
        "coding": [ {
          "system": "http://snomed.info/sct",
          "version": "http://snomed.info/sct/900000000000207008/version/20250501",
          "code": "396432002",
          "display": "Status of regression of tumor (observable entity)"
        } ]
      },
      "subject": {
        "reference": "Patient/43d8d22e39e073fbb83f221071d60fe92e947d234ada77f7401d0eb4d230a849"
      },
      "focus": [ {
        "reference": "Condition/60c7c9e7ec920151bab3675602c2c7653c354b96d9b5bcdda96151fc7d6dca06"
      } ],
      "effectiveDateTime": "2023-08-14",
      "valueCodeableConcept": {
        "coding": [ {
          "system": "https://www.medizininformatik-initiative.de/fhir/ext/modul-onko/CodeSystem/mii-cs-onko-verlauf-gesamtbeurteilung",
          "code": "V",
          "display": "Vollremission"
        } ]
      },
      "component": [ {
        "code": {
          "coding": [ {
            "system": "http://snomed.info/sct",
            "version": "http://snomed.info/sct/900000000000207008/version/20250501",
            "code": "277062004",
            "display": "Status des Residualtumors"
          } ]
        },
        "valueCodeableConcept": {
          "coding": [ {
            "system": "https://www.medizininformatik-initiative.de/fhir/ext/modul-onko/CodeSystem/mii-cs-onko-verlauf-primaertumor",
            "code": "K",
            "display": "kein Tumor nachweisbar"
          } ]
        }
      }, {
        "code": {
          "coding": [ {
            "system": "http://snomed.info/sct",
            "version": "http://snomed.info/sct/900000000000207008/version/20250501",
            "code": "399656008",
            "display": "Status of tumor metastasis to regional lymph nodes (observable entity)"
          } ]
        },
        "valueCodeableConcept": {
          "coding": [ {
            "system": "https://www.medizininformatik-initiative.de/fhir/ext/modul-onko/CodeSystem/mii-cs-onko-verlauf-lymphknoten",
            "code": "K",
            "display": "kein Lymphknotenbefall nachweisbar"
          } ]
        }
      }, {
        "code": {
          "coding": [ {
            "system": "http://snomed.info/sct",
            "version": "http://snomed.info/sct/900000000000207008/version/20250501",
            "code": "399608002",
            "display": "Status of distant metastasis (observable entity)"
          } ]
        },
        "valueCodeableConcept": {
          "coding": [ {
            "system": "https://www.medizininformatik-initiative.de/fhir/ext/modul-onko/CodeSystem/mii-cs-onko-verlauf-fernmetastasen",
            "code": "K",
            "display": "keine Fernmetastasen nachweisbar"
          } ]
        }
      } ]
    },
    "request": {
      "method": "PUT",
      "url": "Observation/04b7cf22855942cf4043fa5b6b3d3c38306e88e55c7b732bb445c578b8ab7ee1"
    }
  }, {
    "fullUrl": "Observation/7ef92467d95536ced709834b2e49616411a0a245c7cfdb4b014430dffbefe40c",
    "resource": {
      "resourceType": "Observation",
      "id": "7ef92467d95536ced709834b2e49616411a0a245c7cfdb4b014430dffbefe40c",
      "meta": {
        "profile": [ "https://www.medizininformatik-initiative.de/fhir/ext/modul-onko/StructureDefinition/mii-pr-onko-allgemeiner-leistungszustand-ecog" ]
      },
      "identifier": [ {
        "system": "https://bzkf.github.io/obds-to-fhir/identifiers/allgemeiner-leistungszustand-ecog-id",
        "value": "ECOG-VER_19503"
      } ],
      "status": "final",
      "code": {
        "coding": [ {
          "system": "http://snomed.info/sct",
          "version": "http://snomed.info/sct/900000000000207008/version/20250501",
          "code": "423740007",
          "display": "Eastern Cooperative Oncology Group performance status (observable entity)"
        } ]
      },
      "subject": {
        "reference": "Patient/43d8d22e39e073fbb83f221071d60fe92e947d234ada77f7401d0eb4d230a849"
      },
      "focus": [ {
        "reference": "Condition/60c7c9e7ec920151bab3675602c2c7653c354b96d9b5bcdda96151fc7d6dca06"
      } ],
      "effectiveDateTime": "2023-08-14",
      "valueCodeableConcept": {
        "coding": [ {
          "system": "https://www.medizininformatik-initiative.de/fhir/ext/modul-onko/CodeSystem/mii-cs-onko-allgemeiner-leistungszustand-ecog",
          "code": "0",
          "display": "Normale, uneingeschr채nkte Aktivit채t wie vor der Erkrankung (90 - 100 % nach Karnofsky)"
        } ]
      }
    },
    "request": {
      "method": "PUT",
      "url": "Observation/7ef92467d95536ced709834b2e49616411a0a245c7cfdb4b014430dffbefe40c"
    }
  }, {
    "fullUrl": "Observation/ff12000dbd3f54b353faa7f25148b75c54a3a6435c49849bbf8c8f76f3149389",
    "resource": {
      "resourceType": "Observation",
      "id": "ff12000dbd3f54b353faa7f25148b75c54a3a6435c49849bbf8c8f76f3149389",
      "meta": {
        "profile": [ "https://www.medizininformatik-initiative.de/fhir/ext/modul-onko/StructureDefinition/mii-pr-onko-tod" ]
      },
      "identifier": [ {
        "system": "https://bzkf.github.io/obds-to-fhir/identifiers/tod-observation-id",
        "value": "104"
      } ],
      "status": "final",
      "code": {
        "coding": [ {
          "system": "http://snomed.info/sct",
          "version": "http://snomed.info/sct/900000000000207008/version/20250501",
          "code": "184305005",
          "display": "Cause of death (observable entity)"
        } ]
      },
      "subject": {
        "reference": "Patient/43d8d22e39e073fbb83f221071d60fe92e947d234ada77f7401d0eb4d230a849"
      },
      "focus": [ {
        "reference": "Condition/60c7c9e7ec920151bab3675602c2c7653c354b96d9b5bcdda96151fc7d6dca06"
      } ],
      "effectiveDateTime": "2023-09-01",
      "interpretation": [ {
        "coding": [ {
          "system": "https://www.medizininformatik-initiative.de/fhir/ext/modul-onko/CodeSystem/mii-cs-onko-tod",
          "code": "N"
        } ]
      } ]
    },
    "request": {
      "method": "PUT",
      "url": "Observation/ff12000dbd3f54b353faa7f25148b75c54a3a6435c49849bbf8c8f76f3149389"
    }
  }, {
    "fullUrl": "Observation/ee9229bfb55adfac28d31404e6774949fe5f9e3e9f3a3a7c6c0e987a1e192d62",
    "resource": {
      "resourceType": "Observation",
      "id": "ee9229bfb55adfac28d31404e6774949fe5f9e3e9f3a3a7c6c0e987a1e192d62",
      "meta": {
        "profile": [ "https://www.medizininformatik-initiative.de/fhir/ext/modul-onko/StructureDefinition/mii-pr-onko-allgemeiner-leistungszustand-ecog" ]
      },
      "identifier": [ {
        "system": "https://bzkf.github.io/obds-to-fhir/identifiers/allgemeiner-leistungszustand-ecog-id",
        "value": "ECOG-10_5_DI_1"
      } ],
      "status": "final",
      "code": {
        "coding": [ {
          "system": "http://snomed.info/sct",
          "version": "http://snomed.info/sct/900000000000207008/version/20250501",
          "code": "423740007",
          "display": "Eastern Cooperative Oncology Group performance status (observable entity)"
        } ]
      },
      "subject": {
        "reference": "Patient/43d8d22e39e073fbb83f221071d60fe92e947d234ada77f7401d0eb4d230a849"
      },
      "focus": [ {
        "reference": "Condition/60c7c9e7ec920151bab3675602c2c7653c354b96d9b5bcdda96151fc7d6dca06"
      } ],
      "effectiveDateTime": "2022-10-02",
      "valueCodeableConcept": {
        "coding": [ {
          "system": "https://www.medizininformatik-initiative.de/fhir/ext/modul-onko/CodeSystem/mii-cs-onko-allgemeiner-leistungszustand-ecog",
          "code": "0",
          "display": "Normale, uneingeschr채nkte Aktivit채t wie vor der Erkrankung (90 - 100 % nach Karnofsky)"
        } ]
      }
    },
    "request": {
      "method": "PUT",
      "url": "Observation/ee9229bfb55adfac28d31404e6774949fe5f9e3e9f3a3a7c6c0e987a1e192d62"
    }
  }, {
    "fullUrl": "Specimen/e610555b244f1e3aeb4b84fe548b681d72119de52a1e9e738cfbc39304dcb382",
    "resource": {
      "resourceType": "Specimen",
      "id": "e610555b244f1e3aeb4b84fe548b681d72119de52a1e9e738cfbc39304dcb382",
      "meta": {
        "profile": [ "https://www.medizininformatik-initiative.de/fhir/ext/modul-onko/StructureDefinition/mii-pr-onko-specimen" ]
      },
      "identifier": [ {
        "system": "https://bzkf.github.io/obds-to-fhir/identifiers/histologie-specimen-id",
        "value": "365"
      } ],
      "accessionIdentifier": {
        "value": "X/98765/1"
      },
      "subject": {
        "reference": "Patient/43d8d22e39e073fbb83f221071d60fe92e947d234ada77f7401d0eb4d230a849"
      },
      "collection": {
        "collectedDateTime": "2022-10-03"
      }
    },
    "request": {
      "method": "PUT",
      "url": "Specimen/e610555b244f1e3aeb4b84fe548b681d72119de52a1e9e738cfbc39304dcb382"
    }
  }, {
    "fullUrl": "Observation/91560d1576a1a8e6448bf364bca3fc67bf7f594cffd5e6a4785ca430ef2eb83a",
    "resource": {
      "resourceType": "Observation",
      "id": "91560d1576a1a8e6448bf364bca3fc67bf7f594cffd5e6a4785ca430ef2eb83a",
      "meta": {
        "profile": [ "https://www.medizininformatik-initiative.de/fhir/ext/modul-onko/StructureDefinition/mii-pr-onko-grading" ]
      },
      "identifier": [ {
        "system": "https://bzkf.github.io/obds-to-fhir/identifiers/grading-observation-id",
        "value": "365-grading"
      } ],
      "status": "final",
      "category": [ {
        "coding": [ {
          "system": "http://terminology.hl7.org/CodeSystem/observation-category",
          "code": "laboratory"
        } ]
      } ],
      "code": {
        "coding": [ {
          "system": "http://loinc.org",
          "version": "2.80",
          "code": "33732-9",
          "display": "Histology grade [Identifier] in Cancer specimen"
        }, {
          "system": "http://snomed.info/sct",
          "version": "http://snomed.info/sct/900000000000207008/version/20250501",
          "code": "371469007",
          "display": "Histologic grade of neoplasm (observable entity)"
        } ]
      },
      "subject": {
        "reference": "Patient/43d8d22e39e073fbb83f221071d60fe92e947d234ada77f7401d0eb4d230a849"
      },
      "focus": [ {
        "reference": "Condition/60c7c9e7ec920151bab3675602c2c7653c354b96d9b5bcdda96151fc7d6dca06"
      } ],
      "effectiveDateTime": "2022-10-03",
      "valueCodeableConcept": {
        "coding": [ {
          "system": "https://www.medizininformatik-initiative.de/fhir/ext/modul-onko/CodeSystem/mii-cs-onko-grading",
          "code": "T"
        } ]
      },
      "specimen": {
        "reference": "Specimen/e610555b244f1e3aeb4b84fe548b681d72119de52a1e9e738cfbc39304dcb382"
      }
    },
    "request": {
      "method": "PUT",
      "url": "Observation/91560d1576a1a8e6448bf364bca3fc67bf7f594cffd5e6a4785ca430ef2eb83a"
    }
  }, {
    "fullUrl": "Observation/a4f48c0d03fd5a64e824a2212358ffd1c5ce291d1ae5b32acc0006e86fe6c701",
    "resource": {
      "resourceType": "Observation",
      "id": "a4f48c0d03fd5a64e824a2212358ffd1c5ce291d1ae5b32acc0006e86fe6c701",
      "meta": {
        "profile": [ "https://www.medizininformatik-initiative.de/fhir/ext/modul-onko/StructureDefinition/mii-pr-onko-studienteilnahme" ]
      },
      "identifier": [ {
        "system": "https://bzkf.github.io/obds-to-fhir/identifiers/studienteilnahme-observation-id",
        "value": "10_5_DI_1-Studienteilnahme"
      } ],
      "status": "final",
      "code": {
        "coding": [ {
          "system": "http://snomed.info/sct",
          "version": "http://snomed.info/sct/900000000000207008/version/20250501",
          "code": "709491003",
          "display": "Enrollment in clinical trial (procedure)"
        } ]
      },
      "subject": {
        "reference": "Patient/43d8d22e39e073fbb83f221071d60fe92e947d234ada77f7401d0eb4d230a849"
      },
      "focus": [ {
        "reference": "Condition/60c7c9e7ec920151bab3675602c2c7653c354b96d9b5bcdda96151fc7d6dca06"
      } ],
      "valueCodeableConcept": {
        "coding": [ {
          "system": "https://www.medizininformatik-initiative.de/fhir/ext/modul-onko/CodeSystem/mii-cs-onko-studienteilnahme",
          "code": "N"
        } ]
      }
    },
    "request": {
      "method": "PUT",
      "url": "Observation/a4f48c0d03fd5a64e824a2212358ffd1c5ce291d1ae5b32acc0006e86fe6c701"
    }
  }, {
    "fullUrl": "Observation/ed9bd4e573674d347a0252b2d778c6ef3e2272191ac3844678e9ca3be2431bba",
    "resource": {
      "resourceType": "Observation",
      "id": "ed9bd4e573674d347a0252b2d778c6ef3e2272191ac3844678e9ca3be2431bba",
      "meta": {
        "profile": [ "https://www.medizininformatik-initiative.de/fhir/ext/modul-onko/StructureDefinition/mii-pr-onko-tnm-t-kategorie" ]
      },
      "identifier": [ {
        "system": "https://bzkf.github.io/obds-to-fhir/identifiers/tnm-t-kategorie-observation-id",
        "value": "341-c-2022-10-02-T"
      } ],
      "status": "final",
      "code": {
        "extension": [ {
          "url": "https://www.medizininformatik-initiative.de/fhir/ext/modul-onko/StructureDefinition/mii-ex-onko-tnm-cp-praefix",
          "valueCodeableConcept": {
            "coding": [ {
              "system": "https://www.uicc.org/resources/tnm",
              "code": "c"
            } ]
          }
        } ],
        "coding": [ {
          "system": "http://snomed.info/sct",
          "version": "http://snomed.info/sct/900000000000207008/version/20250501",
          "code": "399504009",
          "display": "cT category (observable entity)"
        } ]
      },
      "subject": {
        "reference": "Patient/43d8d22e39e073fbb83f221071d60fe92e947d234ada77f7401d0eb4d230a849"
      },
      "focus": [ {
        "reference": "Condition/60c7c9e7ec920151bab3675602c2c7653c354b96d9b5bcdda96151fc7d6dca06"
      } ],
      "effectiveDateTime": "2022-10-02",
      "valueCodeableConcept": {
        "coding": [ {
          "system": "https://www.uicc.org/resources/tnm",
          "code": "Tis"
        } ]
      },
      "method": {
        "coding": [ {
          "system": "https://www.medizininformatik-initiative.de/fhir/ext/modul-onko/CodeSystem/mii-cs-onko-tnm-version",
          "code": "8"
        } ]
      }
    },
    "request": {
      "method": "PUT",
      "url": "Observation/ed9bd4e573674d347a0252b2d778c6ef3e2272191ac3844678e9ca3be2431bba"
    }
  }, {
    "fullUrl": "Observation/ac9497efec113acfc406caf5974285e2a8033bb94a1270e36fe6f1fd13b7c508",
    "resource": {
      "resourceType": "Observation",
      "id": "ac9497efec113acfc406caf5974285e2a8033bb94a1270e36fe6f1fd13b7c508",
      "meta": {
        "profile": [ "https://www.medizininformatik-initiative.de/fhir/ext/modul-onko/StructureDefinition/mii-pr-onko-tnm-n-kategorie" ]
      },
      "identifier": [ {
        "system": "https://bzkf.github.io/obds-to-fhir/identifiers/tnm-n-kategorie-observation-id",
        "value": "341-c-2022-10-02-N"
      } ],
      "status": "final",
      "code": {
        "extension": [ {
          "url": "https://www.medizininformatik-initiative.de/fhir/ext/modul-onko/StructureDefinition/mii-ex-onko-tnm-cp-praefix",
          "valueCodeableConcept": {
            "coding": [ {
              "system": "https://www.uicc.org/resources/tnm",
              "code": "c"
            } ]
          }
        } ],
        "coding": [ {
          "system": "http://snomed.info/sct",
          "version": "http://snomed.info/sct/900000000000207008/version/20250501",
          "code": "399534004",
          "display": "cN category (observable entity)"
        } ]
      },
      "subject": {
        "reference": "Patient/43d8d22e39e073fbb83f221071d60fe92e947d234ada77f7401d0eb4d230a849"
      },
      "focus": [ {
        "reference": "Condition/60c7c9e7ec920151bab3675602c2c7653c354b96d9b5bcdda96151fc7d6dca06"
      } ],
      "effectiveDateTime": "2022-10-02",
      "valueCodeableConcept": {
        "coding": [ {
          "system": "https://www.uicc.org/resources/tnm",
          "code": "N0"
        } ]
      },
      "method": {
        "coding": [ {
          "system": "https://www.medizininformatik-initiative.de/fhir/ext/modul-onko/CodeSystem/mii-cs-onko-tnm-version",
          "code": "8"
        } ]
      }
    },
    "request": {
      "method": "PUT",
      "url": "Observation/ac9497efec113acfc406caf5974285e2a8033bb94a1270e36fe6f1fd13b7c508"
    }
  }, {
    "fullUrl": "Observation/5e8da1353e9b8525f913a4610a12388c3fe9d70cf9718ca4b9ad937abe2f6ae2",
    "resource": {
      "resourceType": "Observation",
      "id": "5e8da1353e9b8525f913a4610a12388c3fe9d70cf9718ca4b9ad937abe2f6ae2",
      "meta": {
        "profile": [ "https://www.medizininformatik-initiative.de/fhir/ext/modul-onko/StructureDefinition/mii-pr-onko-tnm-m-kategorie" ]
      },
      "identifier": [ {
        "system": "https://bzkf.github.io/obds-to-fhir/identifiers/tnm-m-kategorie-observation-id",
        "value": "341-c-2022-10-02-M"
      } ],
      "status": "final",
      "code": {
        "extension": [ {
          "url": "https://www.medizininformatik-initiative.de/fhir/ext/modul-onko/StructureDefinition/mii-ex-onko-tnm-cp-praefix",
          "valueCodeableConcept": {
            "coding": [ {
              "system": "https://www.uicc.org/resources/tnm",
              "code": "c"
            } ]
          }
        } ],
        "coding": [ {
          "system": "http://snomed.info/sct",
          "version": "http://snomed.info/sct/900000000000207008/version/20250501",
          "code": "399387003",
          "display": "cM category (observable entity)"
        } ]
      },
      "subject": {
        "reference": "Patient/43d8d22e39e073fbb83f221071d60fe92e947d234ada77f7401d0eb4d230a849"
      },
      "focus": [ {
        "reference": "Condition/60c7c9e7ec920151bab3675602c2c7653c354b96d9b5bcdda96151fc7d6dca06"
      } ],
      "effectiveDateTime": "2022-10-02",
      "valueCodeableConcept": {
        "coding": [ {
          "system": "https://www.uicc.org/resources/tnm",
          "code": "M0"
        } ]
      },
      "method": {
        "coding": [ {
          "system": "https://www.medizininformatik-initiative.de/fhir/ext/modul-onko/CodeSystem/mii-cs-onko-tnm-version",
          "code": "8"
        } ]
      }
    },
    "request": {
      "method": "PUT",
      "url": "Observation/5e8da1353e9b8525f913a4610a12388c3fe9d70cf9718ca4b9ad937abe2f6ae2"
    }
  }, {
    "fullUrl": "Observation/a739009997775d96ae829f017b5db31dd91552c15de5a0006a2a9f9ba194e66f",
    "resource": {
      "resourceType": "Observation",
      "id": "a739009997775d96ae829f017b5db31dd91552c15de5a0006a2a9f9ba194e66f",
      "meta": {
        "profile": [ "https://www.medizininformatik-initiative.de/fhir/ext/modul-onko/StructureDefinition/mii-pr-onko-tnm-klassifikation" ]
      },
      "identifier": [ {
        "system": "https://bzkf.github.io/obds-to-fhir/identifiers/tnm-grouping-observation-id",
        "value": "341-c-2022-10-02"
      } ],
      "status": "final",
      "code": {
        "coding": [ {
          "system": "http://snomed.info/sct",
          "version": "http://snomed.info/sct/900000000000207008/version/20250501",
          "code": "399537006",
          "display": "Clinical TNM stage grouping"
        } ]
      },
      "subject": {
        "reference": "Patient/43d8d22e39e073fbb83f221071d60fe92e947d234ada77f7401d0eb4d230a849"
      },
      "focus": [ {
        "reference": "Condition/60c7c9e7ec920151bab3675602c2c7653c354b96d9b5bcdda96151fc7d6dca06"
      } ],
      "effectiveDateTime": "2022-10-02",
      "valueCodeableConcept": {
        "coding": [ {
          "system": "https://www.uicc.org/resources/tnm",
          "code": "0",
          "display": "Stadium 0"
        } ]
      },
      "method": {
        "coding": [ {
          "system": "https://www.medizininformatik-initiative.de/fhir/ext/modul-onko/CodeSystem/mii-cs-onko-tnm-version",
          "code": "8"
        } ]
      },
      "hasMember": [ {
        "reference": "Observation/ed9bd4e573674d347a0252b2d778c6ef3e2272191ac3844678e9ca3be2431bba"
      }, {
        "reference": "Observation/ac9497efec113acfc406caf5974285e2a8033bb94a1270e36fe6f1fd13b7c508"
      }, {
        "reference": "Observation/5e8da1353e9b8525f913a4610a12388c3fe9d70cf9718ca4b9ad937abe2f6ae2"
      } ]
    },
    "request": {
      "method": "PUT",
      "url": "Observation/a739009997775d96ae829f017b5db31dd91552c15de5a0006a2a9f9ba194e66f"
    }
  }, {
    "fullUrl": "Observation/34e2ecb14eba7748aa5e490c3337b6ddc2565161cf1186ce50d064aad8b50970",
    "resource": {
      "resourceType": "Observation",
      "id": "34e2ecb14eba7748aa5e490c3337b6ddc2565161cf1186ce50d064aad8b50970",
      "meta": {
        "profile": [ "https://www.medizininformatik-initiative.de/fhir/ext/modul-onko/StructureDefinition/mii-pr-onko-tnm-t-kategorie" ]
      },
      "identifier": [ {
        "system": "https://bzkf.github.io/obds-to-fhir/identifiers/tnm-t-kategorie-observation-id",
        "value": "342-p-2022-10-03-T"
      } ],
      "status": "final",
      "code": {
        "extension": [ {
          "url": "https://www.medizininformatik-initiative.de/fhir/ext/modul-onko/StructureDefinition/mii-ex-onko-tnm-cp-praefix",
          "valueCodeableConcept": {
            "coding": [ {
              "system": "https://www.uicc.org/resources/tnm",
              "code": "p"
            } ]
          }
        } ],
        "coding": [ {
          "system": "http://snomed.info/sct",
          "version": "http://snomed.info/sct/900000000000207008/version/20250501",
          "code": "384625004",
          "display": "pT category (observable entity)"
        } ]
      },
      "subject": {
        "reference": "Patient/43d8d22e39e073fbb83f221071d60fe92e947d234ada77f7401d0eb4d230a849"
      },
      "focus": [ {
        "reference": "Condition/60c7c9e7ec920151bab3675602c2c7653c354b96d9b5bcdda96151fc7d6dca06"
      } ],
      "effectiveDateTime": "2022-10-03",
      "valueCodeableConcept": {
        "coding": [ {
          "system": "https://www.uicc.org/resources/tnm",
          "code": "Tis"
        } ]
      },
      "method": {
        "coding": [ {
          "system": "https://www.medizininformatik-initiative.de/fhir/ext/modul-onko/CodeSystem/mii-cs-onko-tnm-version",
          "code": "8"
        } ]
      }
    },
    "request": {
      "method": "PUT",
      "url": "Observation/34e2ecb14eba7748aa5e490c3337b6ddc2565161cf1186ce50d064aad8b50970"
    }
  }, {
    "fullUrl": "Observation/91c863666793c5bfc21618f1c958bc8a7ad2ed5c7bfe7657a869d0b65060231f",
    "resource": {
      "resourceType": "Observation",
      "id": "91c863666793c5bfc21618f1c958bc8a7ad2ed5c7bfe7657a869d0b65060231f",
      "meta": {
        "profile": [ "https://www.medizininformatik-initiative.de/fhir/ext/modul-onko/StructureDefinition/mii-pr-onko-tnm-n-kategorie" ]
      },
      "identifier": [ {
        "system": "https://bzkf.github.io/obds-to-fhir/identifiers/tnm-n-kategorie-observation-id",
        "value": "342-p-2022-10-03-N"
      } ],
      "status": "final",
      "code": {
        "extension": [ {
          "url": "https://www.medizininformatik-initiative.de/fhir/ext/modul-onko/StructureDefinition/mii-ex-onko-tnm-cp-praefix",
          "valueCodeableConcept": {
            "coding": [ {
              "system": "https://www.uicc.org/resources/tnm",
              "code": "c"
            } ]
          }
        } ],
        "coding": [ {
          "system": "http://snomed.info/sct",
          "version": "http://snomed.info/sct/900000000000207008/version/20250501",
          "code": "399534004",
          "display": "cN category (observable entity)"
        } ]
      },
      "subject": {
        "reference": "Patient/43d8d22e39e073fbb83f221071d60fe92e947d234ada77f7401d0eb4d230a849"
      },
      "focus": [ {
        "reference": "Condition/60c7c9e7ec920151bab3675602c2c7653c354b96d9b5bcdda96151fc7d6dca06"
      } ],
      "effectiveDateTime": "2022-10-03",
      "valueCodeableConcept": {
        "coding": [ {
          "system": "https://www.uicc.org/resources/tnm",
          "code": "N0"
        } ]
      },
      "method": {
        "coding": [ {
          "system": "https://www.medizininformatik-initiative.de/fhir/ext/modul-onko/CodeSystem/mii-cs-onko-tnm-version",
          "code": "8"
        } ]
      }
    },
    "request": {
      "method": "PUT",
      "url": "Observation/91c863666793c5bfc21618f1c958bc8a7ad2ed5c7bfe7657a869d0b65060231f"
    }
  }, {
    "fullUrl": "Observation/3d38174ca20f82cdced8d59e3fc99d77529c2711735a320a74f1aa0c356f2129",
    "resource": {
      "resourceType": "Observation",
      "id": "3d38174ca20f82cdced8d59e3fc99d77529c2711735a320a74f1aa0c356f2129",
      "meta": {
        "profile": [ "https://www.medizininformatik-initiative.de/fhir/ext/modul-onko/StructureDefinition/mii-pr-onko-tnm-m-kategorie" ]
      },
      "identifier": [ {
        "system": "https://bzkf.github.io/obds-to-fhir/identifiers/tnm-m-kategorie-observation-id",
        "value": "342-p-2022-10-03-M"
      } ],
      "status": "final",
      "code": {
        "extension": [ {
          "url": "https://www.medizininformatik-initiative.de/fhir/ext/modul-onko/StructureDefinition/mii-ex-onko-tnm-cp-praefix",
          "valueCodeableConcept": {
            "coding": [ {
              "system": "https://www.uicc.org/resources/tnm",
              "code": "c"
            } ]
          }
        } ],
        "coding": [ {
          "system": "http://snomed.info/sct",
          "version": "http://snomed.info/sct/900000000000207008/version/20250501",
          "code": "399387003",
          "display": "cM category (observable entity)"
        } ]
      },
      "subject": {
        "reference": "Patient/43d8d22e39e073fbb83f221071d60fe92e947d234ada77f7401d0eb4d230a849"
      },
      "focus": [ {
        "reference": "Condition/60c7c9e7ec920151bab3675602c2c7653c354b96d9b5bcdda96151fc7d6dca06"
      } ],
      "effectiveDateTime": "2022-10-03",
      "valueCodeableConcept": {
        "coding": [ {
          "system": "https://www.uicc.org/resources/tnm",
          "code": "M0"
        } ]
      },
      "method": {
        "coding": [ {
          "system": "https://www.medizininformatik-initiative.de/fhir/ext/modul-onko/CodeSystem/mii-cs-onko-tnm-version",
          "code": "8"
        } ]
      }
    },
    "request": {
      "method": "PUT",
      "url": "Observation/3d38174ca20f82cdced8d59e3fc99d77529c2711735a320a74f1aa0c356f2129"
    }
  }, {
    "fullUrl": "Observation/169b401f23a54870dfdce3c457bd6ab3d4cbef312215af7df7718dc51dc93e23",
    "resource": {
      "resourceType": "Observation",
      "id": "169b401f23a54870dfdce3c457bd6ab3d4cbef312215af7df7718dc51dc93e23",
      "meta": {
        "profile": [ "https://www.medizininformatik-initiative.de/fhir/ext/modul-onko/StructureDefinition/mii-pr-onko-tnm-klassifikation" ]
      },
      "identifier": [ {
        "system": "https://bzkf.github.io/obds-to-fhir/identifiers/tnm-grouping-observation-id",
        "value": "342-p-2022-10-03"
      } ],
      "status": "final",
      "code": {
        "coding": [ {
          "system": "http://snomed.info/sct",
          "version": "http://snomed.info/sct/900000000000207008/version/20250501",
          "code": "399588009",
          "display": "Pathologic TNM stage grouping"
        } ]
      },
      "subject": {
        "reference": "Patient/43d8d22e39e073fbb83f221071d60fe92e947d234ada77f7401d0eb4d230a849"
      },
      "focus": [ {
        "reference": "Condition/60c7c9e7ec920151bab3675602c2c7653c354b96d9b5bcdda96151fc7d6dca06"
      } ],
      "effectiveDateTime": "2022-10-03",
      "valueCodeableConcept": {
        "coding": [ {
          "system": "https://www.uicc.org/resources/tnm",
          "code": "0",
          "display": "Stadium 0"
        } ]
      },
      "method": {
        "coding": [ {
          "system": "https://www.medizininformatik-initiative.de/fhir/ext/modul-onko/CodeSystem/mii-cs-onko-tnm-version",
          "code": "8"
        } ]
      },
      "hasMember": [ {
        "reference": "Observation/34e2ecb14eba7748aa5e490c3337b6ddc2565161cf1186ce50d064aad8b50970"
      }, {
        "reference": "Observation/91c863666793c5bfc21618f1c958bc8a7ad2ed5c7bfe7657a869d0b65060231f"
      }, {
        "reference": "Observation/3d38174ca20f82cdced8d59e3fc99d77529c2711735a320a74f1aa0c356f2129"
      } ]
    },
    "request": {
      "method": "PUT",
      "url": "Observation/169b401f23a54870dfdce3c457bd6ab3d4cbef312215af7df7718dc51dc93e23"
    }
  }, {
    "fullUrl": "List/d1c7f88bae7347ce3687489f726bb619b240436ae19c7c5189a8d57de8b4c5c8",
    "resource": {
      "resourceType": "List",
      "id": "d1c7f88bae7347ce3687489f726bb619b240436ae19c7c5189a8d57de8b4c5c8",
      "meta": {
        "profile": [ "https://www.medizininformatik-initiative.de/fhir/ext/modul-onko/StructureDefinition/mii-pr-onko-liste-evidenz-erstdiagnose" ]
      },
      "identifier": [ {
        "system": "https://bzkf.github.io/obds-to-fhir/identifiers/erstdiagnose-evidenz-list-id",
        "value": "19-195"
      } ],
      "status": "current",
      "mode": "snapshot",
      "title": "Liste der Evidenz zum Erstdiagnosezeitpunkt",
      "subject": {
        "reference": "Patient/43d8d22e39e073fbb83f221071d60fe92e947d234ada77f7401d0eb4d230a849"
      },
      "entry": [ {
        "item": {
          "reference": "Observation/ee9229bfb55adfac28d31404e6774949fe5f9e3e9f3a3a7c6c0e987a1e192d62"
        }
      }, {
        "item": {
          "reference": "Observation/91560d1576a1a8e6448bf364bca3fc67bf7f594cffd5e6a4785ca430ef2eb83a"
        }
      }, {
        "item": {
          "reference": "Observation/a4f48c0d03fd5a64e824a2212358ffd1c5ce291d1ae5b32acc0006e86fe6c701"
        }
      }, {
        "item": {
          "reference": "Observation/ed9bd4e573674d347a0252b2d778c6ef3e2272191ac3844678e9ca3be2431bba"
        }
      }, {
        "item": {
          "reference": "Observation/ac9497efec113acfc406caf5974285e2a8033bb94a1270e36fe6f1fd13b7c508"
        }
      }, {
        "item": {
          "reference": "Observation/5e8da1353e9b8525f913a4610a12388c3fe9d70cf9718ca4b9ad937abe2f6ae2"
        }
      }, {
        "item": {
          "reference": "Observation/a739009997775d96ae829f017b5db31dd91552c15de5a0006a2a9f9ba194e66f"
        }
      }, {
        "item": {
          "reference": "Observation/34e2ecb14eba7748aa5e490c3337b6ddc2565161cf1186ce50d064aad8b50970"
        }
      }, {
        "item": {
          "reference": "Observation/91c863666793c5bfc21618f1c958bc8a7ad2ed5c7bfe7657a869d0b65060231f"
        }
      }, {
        "item": {
          "reference": "Observation/3d38174ca20f82cdced8d59e3fc99d77529c2711735a320a74f1aa0c356f2129"
        }
      }, {
        "item": {
          "reference": "Observation/169b401f23a54870dfdce3c457bd6ab3d4cbef312215af7df7718dc51dc93e23"
        }
      } ]
    },
    "request": {
      "method": "PUT",
      "url": "List/d1c7f88bae7347ce3687489f726bb619b240436ae19c7c5189a8d57de8b4c5c8"
    }
  }, {
    "fullUrl": "Condition/2c354fb45e5691c7a6f7e33efdac34a8f29d80c93fc21339191d8fdf7b53b17e",
    "resource": {
      "resourceType": "Condition",
      "id": "2c354fb45e5691c7a6f7e33efdac34a8f29d80c93fc21339191d8fdf7b53b17e",
      "meta": {
        "profile": [ "https://www.medizininformatik-initiative.de/fhir/ext/modul-onko/StructureDefinition/mii-pr-onko-fruehere-tumorerkrankung" ]
      },
      "extension": [ {
        "url": "http://hl7.org/fhir/StructureDefinition/condition-assertedDate",
        "valueDateTime": "2013"
      } ],
      "identifier": [ {
        "system": "https://bzkf.github.io/obds-to-fhir/identifiers/fruehere-tumorerkrankung-condition-id",
        "value": "19-195-C50-9-2013"
      } ],
      "category": [ {
        "coding": [ {
          "system": "http://snomed.info/sct",
          "version": "http://snomed.info/sct/900000000000207008/version/20250501",
          "code": "394593009",
          "display": "Medical oncology (qualifier value)"
        } ]
      } ],
      "code": {
        "coding": [ {
          "system": "http://fhir.de/CodeSystem/bfarm/icd-10-gm",
          "version": "2013",
          "code": "C50.9"
        } ],
        "text": "Mamma-Ca, links"
      },
      "subject": {
        "reference": "Patient/43d8d22e39e073fbb83f221071d60fe92e947d234ada77f7401d0eb4d230a849"
      },
      "recordedDate": "2024-07-18"
    },
    "request": {
      "method": "PUT",
      "url": "Condition/2c354fb45e5691c7a6f7e33efdac34a8f29d80c93fc21339191d8fdf7b53b17e"
    }
  } ]
}