{
  "resourceType": "Bundle",
  "id": "a02e16474896f1d528cac71f2c9b4c45ac3c9028e3a53fb414a1f7882991ee07",
  "type": "transaction",
  "entry": [ {
    "fullUrl": "Patient/a02e16474896f1d528cac71f2c9b4c45ac3c9028e3a53fb414a1f7882991ee07",
    "resource": {
      "resourceType": "Patient",
      "id": "a02e16474896f1d528cac71f2c9b4c45ac3c9028e3a53fb414a1f7882991ee07",
      "meta": {
        "profile": [ "https://www.medizininformatik-initiative.de/fhir/core/modul-person/StructureDefinition/PatientPseudonymisiert" ]
      },
      "identifier": [ {
        "type": {
          "coding": [ {
            "system": "http://terminology.hl7.org/CodeSystem/v2-0203",
            "code": "MR",
            "display": "Medical record number"
          }, {
            "system": "http://terminology.hl7.org/CodeSystem/v3-ObservationValue",
            "code": "PSEUDED",
            "display": "pseudonymized"
          } ]
        },
        "system": "https://bzkf.github.io/obds-to-fhir/identifiers/patient-id",
        "value": "10"
      } ],
      "gender": "female",
      "birthDate": "1950-05-01",
      "address": [ {
        "type": "both",
        "postalCode": "12345",
        "country": "DE"
      } ]
    },
    "request": {
      "method": "PUT",
      "url": "Patient/a02e16474896f1d528cac71f2c9b4c45ac3c9028e3a53fb414a1f7882991ee07"
    }
  }, {
    "fullUrl": "Condition/5e4b2f91fa2ef84922f2aa3ce0e3524ccbec1ac2673a424917d1be5aa56c7571",
    "resource": {
      "resourceType": "Condition",
      "id": "5e4b2f91fa2ef84922f2aa3ce0e3524ccbec1ac2673a424917d1be5aa56c7571",
      "meta": {
        "profile": [ "https://www.medizininformatik-initiative.de/fhir/ext/modul-onko/StructureDefinition/mii-pr-onko-diagnose-primaertumor" ],
        "tag": [ {
          "system": "http://snomed.info/sct",
          "version": "http://snomed.info/sct/900000000000207008/version/20250501",
          "code": "255599008",
          "display": "Incomplete (qualifier value)"
        } ]
      },
      "extension": [ {
        "url": "https://www.medizininformatik-initiative.de/fhir/ext/modul-onko/StructureDefinition/mii-ex-onko-histology-morphology-behavior-icdo3",
        "valueCodeableConcept": {
          "coding": [ {
            "system": "http://terminology.hl7.org/CodeSystem/icd-o-3",
            "version": "31",
            "code": "8500/3"
          } ]
        }
      }, {
        "url": "http://hl7.org/fhir/StructureDefinition/condition-assertedDate",
        "valueDateTime": "2020-02-16"
      } ],
      "identifier": [ {
        "system": "https://bzkf.github.io/obds-to-fhir/identifiers/primaerdiagnose-condition-id",
        "value": "10-1"
      } ],
      "code": {
        "coding": [ {
          "system": "http://fhir.de/CodeSystem/bfarm/icd-10-gm",
          "version": "2020",
          "code": "C50.4"
        } ]
      },
      "bodySite": [ {
        "coding": [ {
          "system": "https://www.medizininformatik-initiative.de/fhir/ext/modul-onko/CodeSystem/mii-cs-onko-seitenlokalisation",
          "code": "R"
        }, {
          "system": "http://snomed.info/sct",
          "version": "http://snomed.info/sct/900000000000207008/version/20250501",
          "code": "24028007",
          "display": "Right (qualifier value)"
        } ]
      } ],
      "subject": {
        "reference": "Patient/a02e16474896f1d528cac71f2c9b4c45ac3c9028e3a53fb414a1f7882991ee07"
      },
      "recordedDate": "2024-09-19"
    },
    "request": {
      "method": "PUT",
      "url": "Condition/5e4b2f91fa2ef84922f2aa3ce0e3524ccbec1ac2673a424917d1be5aa56c7571"
    }
  }, {
    "fullUrl": "Procedure/7235df9cd9b20c4e863029e1bfbda394ef3941e2086340b9f19e0ff64ef618ec",
    "resource": {
      "resourceType": "Procedure",
      "id": "7235df9cd9b20c4e863029e1bfbda394ef3941e2086340b9f19e0ff64ef618ec",
      "meta": {
        "profile": [ "https://www.medizininformatik-initiative.de/fhir/ext/modul-onko/StructureDefinition/mii-pr-onko-strahlentherapie" ]
      },
      "extension": [ {
        "url": "https://www.medizininformatik-initiative.de/fhir/ext/modul-onko/StructureDefinition/mii-ex-onko-strahlentherapie-intention",
        "valueCodeableConcept": {
          "coding": [ {
            "system": "https://www.medizininformatik-initiative.de/fhir/ext/modul-onko/CodeSystem/mii-cs-onko-intention",
            "code": "K"
          } ]
        }
      }, {
        "url": "https://www.medizininformatik-initiative.de/fhir/ext/modul-onko/StructureDefinition/mii-ex-onko-strahlentherapie-stellungzurop",
        "valueCodeableConcept": {
          "coding": [ {
            "system": "https://www.medizininformatik-initiative.de/fhir/ext/modul-onko/CodeSystem/mii-cs-therapie-stellungzurop",
            "code": "A"
          } ]
        }
      } ],
      "identifier": [ {
        "system": "https://bzkf.github.io/obds-to-fhir/identifiers/strahlentherapie-procedure-id",
        "value": "60_1_ST_1"
      } ],
      "status": "completed",
      "category": {
        "coding": [ {
          "system": "http://snomed.info/sct",
          "version": "http://snomed.info/sct/900000000000207008/version/20250501",
          "code": "1287742003",
          "display": "Radiotherapy (procedure)"
        } ]
      },
      "code": {
        "coding": [ {
          "system": "http://fhir.de/CodeSystem/bfarm/ops",
          "version": "2025",
          "code": "8-52",
          "display": "Strahlentherapie"
        } ]
      },
      "subject": {
        "reference": "Patient/a02e16474896f1d528cac71f2c9b4c45ac3c9028e3a53fb414a1f7882991ee07"
      },
      "performedPeriod": {
        "start": "2020-06-12",
        "end": "2020-07-15"
      },
      "reasonReference": [ {
        "reference": "Condition/5e4b2f91fa2ef84922f2aa3ce0e3524ccbec1ac2673a424917d1be5aa56c7571"
      } ],
      "outcome": {
        "coding": [ {
          "system": "https://www.medizininformatik-initiative.de/fhir/ext/modul-onko/CodeSystem/mii-cs-therapie-grund-ende",
          "code": "E"
        } ]
      }
    },
    "request": {
      "method": "PUT",
      "url": "Procedure/7235df9cd9b20c4e863029e1bfbda394ef3941e2086340b9f19e0ff64ef618ec"
    }
  }, {
    "fullUrl": "Procedure/8f8e7c512b0bf9d1f11cab01cdc7a6f63557adf19ca6bed3e9639e3e82052e39",
    "resource": {
      "resourceType": "Procedure",
      "id": "8f8e7c512b0bf9d1f11cab01cdc7a6f63557adf19ca6bed3e9639e3e82052e39",
      "meta": {
        "profile": [ "https://www.medizininformatik-initiative.de/fhir/ext/modul-onko/StructureDefinition/mii-pr-onko-strahlentherapie-bestrahlung-strahlentherapie" ]
      },
      "extension": [ {
        "url": "https://www.medizininformatik-initiative.de/fhir/ext/modul-onko/StructureDefinition/mii-ex-onko-strahlentherapie-bestrahlung-gesamtdosis",
        "valueQuantity": {
          "value": 58.8,
          "unit": "Gy",
          "system": "http://unitsofmeasure.org",
          "code": "Gy"
        }
      }, {
        "url": "https://www.medizininformatik-initiative.de/fhir/ext/modul-onko/StructureDefinition/mii-ex-onko-strahlentherapie-bestrahlung-einzeldosis",
        "valueQuantity": {
          "value": 1.8,
          "unit": "Gy",
          "system": "http://unitsofmeasure.org",
          "code": "Gy"
        }
      }, {
        "url": "https://www.medizininformatik-initiative.de/fhir/ext/modul-onko/StructureDefinition/mii-ex-onko-strahlentherapie-bestrahlung-boost",
        "valueCodeableConcept": {
          "coding": [ {
            "system": "https://www.medizininformatik-initiative.de/fhir/ext/modul-onko/CodeSystem/mii-cs-onko-strahlentherapie-boost",
            "code": "SIB"
          } ]
        }
      } ],
      "identifier": [ {
        "system": "https://bzkf.github.io/obds-to-fhir/identifiers/strahlentherapie-bestrahlung-procedure-id",
        "value": "60_1_ST_1-0"
      } ],
      "partOf": [ {
        "reference": "Procedure/7235df9cd9b20c4e863029e1bfbda394ef3941e2086340b9f19e0ff64ef618ec"
      } ],
      "status": "completed",
      "category": {
        "coding": [ {
          "system": "http://snomed.info/sct",
          "version": "http://snomed.info/sct/900000000000207008/version/20250501",
          "code": "1287742003",
          "display": "Radiotherapy (procedure)"
        } ]
      },
      "code": {
        "coding": [ {
          "system": "http://fhir.de/CodeSystem/bfarm/ops",
          "version": "2025",
          "code": "8-52",
          "display": "Strahlentherapie"
        } ]
      },
      "subject": {
        "reference": "Patient/a02e16474896f1d528cac71f2c9b4c45ac3c9028e3a53fb414a1f7882991ee07"
      },
      "performedPeriod": {
        "start": "2020-06-12",
        "end": "2020-07-15"
      },
      "bodySite": [ {
        "extension": [ {
          "url": "https://www.medizininformatik-initiative.de/fhir/ext/modul-onko/StructureDefinition/mii-ex-onko-strahlentherapie-bestrahlung-seitenlokalisation",
          "valueCodeableConcept": {
            "coding": [ {
              "system": "https://www.medizininformatik-initiative.de/fhir/ext/modul-onko/CodeSystem/mii-cs-onko-seitenlokalisation",
              "code": "R"
            } ]
          }
        } ],
        "coding": [ {
          "system": "https://www.medizininformatik-initiative.de/fhir/ext/modul-onko/CodeSystem/mii-cs-onko-strahlentherapie-zielgebiet",
          "code": "3.1.+"
        } ]
      } ],
      "usedCode": [ {
        "coding": [ {
          "system": "https://www.medizininformatik-initiative.de/fhir/ext/modul-onko/CodeSystem/mii-cs-onko-strahlentherapie-applikationsart",
          "code": "PRCN"
        } ]
      } ]
    },
    "request": {
      "method": "PUT",
      "url": "Procedure/8f8e7c512b0bf9d1f11cab01cdc7a6f63557adf19ca6bed3e9639e3e82052e39"
    }
  }, {
    "fullUrl": "AdverseEvent/a0900717af2614ed63518613ceae92966f32f4b50a9b44e93e6fb5b5635a7bf0",
    "resource": {
      "resourceType": "AdverseEvent",
      "id": "a0900717af2614ed63518613ceae92966f32f4b50a9b44e93e6fb5b5635a7bf0",
      "meta": {
        "profile": [ "https://www.medizininformatik-initiative.de/fhir/ext/modul-onko/StructureDefinition/mii-pr-onko-nebenwirkung-adverse-event" ]
      },
      "identifier": {
        "system": "https://bzkf.github.io/obds-to-fhir/identifiers/nebenwirkung-adverse-event-id",
        "value": "mii-pr-onko-nebenwirkung-60_1_ST_1-0"
      },
      "actuality": "actual",
      "event": {
        "extension": [ {
          "url": "http://hl7.org/fhir/StructureDefinition/data-absent-reason",
          "valueCode": "unknown"
        } ],
        "text": "Strahlendermatitis"
      },
      "subject": {
        "reference": "Patient/a02e16474896f1d528cac71f2c9b4c45ac3c9028e3a53fb414a1f7882991ee07"
      },
      "seriousness": {
        "coding": [ {
          "system": "https://www.medizininformatik-initiative.de/fhir/ext/modul-onko/CodeSystem/mii-cs-onko-nebenwirkung-ctcae-grad",
          "code": "3"
        } ]
      },
      "suspectEntity": [ {
        "instance": {
          "reference": "Procedure/7235df9cd9b20c4e863029e1bfbda394ef3941e2086340b9f19e0ff64ef618ec"
        }
      } ]
    },
    "request": {
      "method": "PUT",
      "url": "AdverseEvent/a0900717af2614ed63518613ceae92966f32f4b50a9b44e93e6fb5b5635a7bf0"
    }
  } ]
}