{
  "resourceType": "Bundle",
  "id": "23283daf4d699cc4b3e9d01cd4ce1344cd94f9f9769dfd88da68b2b696332d48",
  "type": "transaction",
  "entry": [ {
    "fullUrl": "Patient/23283daf4d699cc4b3e9d01cd4ce1344cd94f9f9769dfd88da68b2b696332d48",
    "resource": {
      "resourceType": "Patient",
      "id": "23283daf4d699cc4b3e9d01cd4ce1344cd94f9f9769dfd88da68b2b696332d48",
      "meta": {
        "profile": [ "https://www.medizininformatik-initiative.de/fhir/core/modul-person/StructureDefinition/PatientPseudonymisiert" ]
      },
      "identifier": [ {
        "type": {
          "coding": [ {
            "system": "http://terminology.hl7.org/CodeSystem/v2-0203",
            "code": "MR",
            "display": "Medical record number"
          }, {
            "system": "http://terminology.hl7.org/CodeSystem/v3-ObservationValue",
            "code": "PSEUDED",
            "display": "pseudonymized"
          } ]
        },
        "system": "https://bzkf.github.io/obds-to-fhir/identifiers/patient-id",
        "value": "80"
      } ],
      "gender": "male",
      "birthDate": "1952-03-05",
      "address": [ {
        "type": "both",
        "postalCode": "90402",
        "_country": {
          "extension": [ {
            "url": "http://hl7.org/fhir/StructureDefinition/data-absent-reason",
            "valueCode": "unknown"
          } ]
        }
      } ]
    },
    "request": {
      "method": "PUT",
      "url": "Patient/23283daf4d699cc4b3e9d01cd4ce1344cd94f9f9769dfd88da68b2b696332d48"
    }
  }, {
    "fullUrl": "Condition/e36f967b5391c0aa1a62a6303672b5415efaf3bfdd0b0be02a0739d43ae0b2dc",
    "resource": {
      "resourceType": "Condition",
      "id": "e36f967b5391c0aa1a62a6303672b5415efaf3bfdd0b0be02a0739d43ae0b2dc",
      "meta": {
        "profile": [ "https://www.medizininformatik-initiative.de/fhir/ext/modul-onko/StructureDefinition/mii-pr-onko-diagnose-primaertumor" ]
      },
      "extension": [ {
        "url": "https://www.medizininformatik-initiative.de/fhir/ext/modul-onko/StructureDefinition/mii-ex-onko-histology-morphology-behavior-icdo3",
        "valueCodeableConcept": {
          "coding": [ {
            "system": "http://terminology.hl7.org/CodeSystem/icd-o-3",
            "version": "31",
            "code": "8140/3"
          } ],
          "text": "Adenokarzinom o.n.A."
        }
      }, {
        "url": "http://hl7.org/fhir/StructureDefinition/condition-assertedDate",
        "valueDateTime": "2020-05-10"
      } ],
      "identifier": [ {
        "system": "https://bzkf.github.io/obds-to-fhir/identifiers/primaerdiagnose-condition-id",
        "value": "80-801"
      } ],
      "verificationStatus": {
        "coding": [ {
          "system": "http://terminology.hl7.org/CodeSystem/condition-ver-status",
          "code": "confirmed"
        }, {
          "system": "https://www.medizininformatik-initiative.de/fhir/ext/modul-onko/CodeSystem/mii-cs-onko-primaertumor-diagnosesicherung",
          "code": "7"
        } ]
      },
      "code": {
        "coding": [ {
          "system": "http://fhir.de/CodeSystem/bfarm/icd-10-gm",
          "version": "2020",
          "code": "C61"
        } ]
      },
      "bodySite": [ {
        "coding": [ {
          "system": "http://terminology.hl7.org/CodeSystem/icd-o-3",
          "version": "33",
          "code": "C61.9"
        } ],
        "text": "Prostata o.n.A."
      }, {
        "coding": [ {
          "system": "https://www.medizininformatik-initiative.de/fhir/ext/modul-onko/CodeSystem/mii-cs-onko-seitenlokalisation",
          "code": "T"
        }, {
          "system": "http://snomed.info/sct",
          "version": "http://snomed.info/sct/900000000000207008/version/20250501",
          "code": "385432009",
          "display": "Not applicable (qualifier value)"
        } ]
      } ],
      "subject": {
        "reference": "Patient/23283daf4d699cc4b3e9d01cd4ce1344cd94f9f9769dfd88da68b2b696332d48"
      },
      "recordedDate": "2024-02-16",
      "evidence": [ {
        "detail": [ {
          "reference": "List/99fb24f238619107b2e1605fd6904aec3efe377942af57c5261068556b666e92"
        } ]
      } ]
    },
    "request": {
      "method": "PUT",
      "url": "Condition/e36f967b5391c0aa1a62a6303672b5415efaf3bfdd0b0be02a0739d43ae0b2dc"
    }
  }, {
    "fullUrl": "Procedure/8659f4d846974b09913924a61cb54295e498ab8d1ea36861883c13c3b291c6c1",
    "resource": {
      "resourceType": "Procedure",
      "id": "8659f4d846974b09913924a61cb54295e498ab8d1ea36861883c13c3b291c6c1",
      "meta": {
        "profile": [ "https://www.medizininformatik-initiative.de/fhir/ext/modul-onko/StructureDefinition/mii-pr-onko-strahlentherapie" ]
      },
      "extension": [ {
        "url": "https://www.medizininformatik-initiative.de/fhir/ext/modul-onko/StructureDefinition/mii-ex-onko-strahlentherapie-intention",
        "valueCodeableConcept": {
          "coding": [ {
            "system": "https://www.medizininformatik-initiative.de/fhir/ext/modul-onko/CodeSystem/mii-cs-onko-intention",
            "code": "K"
          } ]
        }
      }, {
        "url": "https://www.medizininformatik-initiative.de/fhir/ext/modul-onko/StructureDefinition/mii-ex-onko-strahlentherapie-stellungzurop",
        "valueCodeableConcept": {
          "coding": [ {
            "system": "https://www.medizininformatik-initiative.de/fhir/ext/modul-onko/CodeSystem/mii-cs-therapie-stellungzurop",
            "code": "A"
          } ]
        }
      } ],
      "identifier": [ {
        "system": "https://bzkf.github.io/obds-to-fhir/identifiers/strahlentherapie-procedure-id",
        "value": "80_1_RAD_1"
      } ],
      "status": "in-progress",
      "category": {
        "coding": [ {
          "system": "http://snomed.info/sct",
          "version": "http://snomed.info/sct/900000000000207008/version/20250501",
          "code": "1287742003",
          "display": "Radiotherapy (procedure)"
        } ]
      },
      "code": {
        "coding": [ {
          "system": "http://fhir.de/CodeSystem/bfarm/ops",
          "version": "2025",
          "code": "8-52",
          "display": "Strahlentherapie"
        } ]
      },
      "subject": {
        "reference": "Patient/23283daf4d699cc4b3e9d01cd4ce1344cd94f9f9769dfd88da68b2b696332d48"
      },
      "performedPeriod": {
        "start": "2020-07-06"
      },
      "reasonReference": [ {
        "reference": "Condition/e36f967b5391c0aa1a62a6303672b5415efaf3bfdd0b0be02a0739d43ae0b2dc"
      } ]
    },
    "request": {
      "method": "PUT",
      "url": "Procedure/8659f4d846974b09913924a61cb54295e498ab8d1ea36861883c13c3b291c6c1"
    }
  }, {
    "fullUrl": "Procedure/27b9cde5682e300a4e3be097c67052f208ed8bff7dbfbf7e11010dd4d18cbe6a",
    "resource": {
      "resourceType": "Procedure",
      "id": "27b9cde5682e300a4e3be097c67052f208ed8bff7dbfbf7e11010dd4d18cbe6a",
      "meta": {
        "profile": [ "https://www.medizininformatik-initiative.de/fhir/ext/modul-onko/StructureDefinition/mii-pr-onko-strahlentherapie-bestrahlung-strahlentherapie" ]
      },
      "identifier": [ {
        "system": "https://bzkf.github.io/obds-to-fhir/identifiers/strahlentherapie-bestrahlung-procedure-id",
        "value": "80_1_RAD_1-0"
      } ],
      "partOf": [ {
        "reference": "Procedure/8659f4d846974b09913924a61cb54295e498ab8d1ea36861883c13c3b291c6c1"
      } ],
      "status": "in-progress",
      "category": {
        "coding": [ {
          "system": "http://snomed.info/sct",
          "version": "http://snomed.info/sct/900000000000207008/version/20250501",
          "code": "1287742003",
          "display": "Radiotherapy (procedure)"
        } ]
      },
      "code": {
        "coding": [ {
          "system": "http://fhir.de/CodeSystem/bfarm/ops",
          "version": "2025",
          "code": "8-52",
          "display": "Strahlentherapie"
        } ]
      },
      "subject": {
        "reference": "Patient/23283daf4d699cc4b3e9d01cd4ce1344cd94f9f9769dfd88da68b2b696332d48"
      },
      "performedPeriod": {
        "start": "2020-07-06"
      },
      "bodySite": [ {
        "extension": [ {
          "url": "https://www.medizininformatik-initiative.de/fhir/ext/modul-onko/StructureDefinition/mii-ex-onko-strahlentherapie-bestrahlung-seitenlokalisation",
          "valueCodeableConcept": {
            "coding": [ {
              "system": "https://www.medizininformatik-initiative.de/fhir/ext/modul-onko/CodeSystem/mii-cs-onko-seitenlokalisation",
              "code": "T"
            } ]
          }
        } ],
        "coding": [ {
          "system": "https://www.medizininformatik-initiative.de/fhir/ext/modul-onko/CodeSystem/mii-cs-onko-strahlentherapie-zielgebiet",
          "code": "5.4"
        } ]
      } ],
      "usedCode": [ {
        "coding": [ {
          "system": "https://www.medizininformatik-initiative.de/fhir/ext/modul-onko/CodeSystem/mii-cs-onko-strahlentherapie-applikationsart",
          "code": "PRCN"
        } ]
      } ]
    },
    "request": {
      "method": "PUT",
      "url": "Procedure/27b9cde5682e300a4e3be097c67052f208ed8bff7dbfbf7e11010dd4d18cbe6a"
    }
  }, {
    "fullUrl": "Procedure/fdc760a36dcc078070986f5fa36465ee167e085a2f2e5accd17cf432cf5b266c",
    "resource": {
      "resourceType": "Procedure",
      "id": "fdc760a36dcc078070986f5fa36465ee167e085a2f2e5accd17cf432cf5b266c",
      "meta": {
        "profile": [ "https://www.medizininformatik-initiative.de/fhir/ext/modul-onko/StructureDefinition/mii-pr-onko-strahlentherapie-bestrahlung-strahlentherapie" ]
      },
      "identifier": [ {
        "system": "https://bzkf.github.io/obds-to-fhir/identifiers/strahlentherapie-bestrahlung-procedure-id",
        "value": "80_1_RAD_1-1"
      } ],
      "partOf": [ {
        "reference": "Procedure/8659f4d846974b09913924a61cb54295e498ab8d1ea36861883c13c3b291c6c1"
      } ],
      "status": "in-progress",
      "category": {
        "coding": [ {
          "system": "http://snomed.info/sct",
          "version": "http://snomed.info/sct/900000000000207008/version/20250501",
          "code": "1287742003",
          "display": "Radiotherapy (procedure)"
        } ]
      },
      "code": {
        "coding": [ {
          "system": "http://fhir.de/CodeSystem/bfarm/ops",
          "version": "2025",
          "code": "8-52",
          "display": "Strahlentherapie"
        } ]
      },
      "subject": {
        "reference": "Patient/23283daf4d699cc4b3e9d01cd4ce1344cd94f9f9769dfd88da68b2b696332d48"
      },
      "performedPeriod": {
        "start": "2020-07-06"
      },
      "bodySite": [ {
        "extension": [ {
          "url": "https://www.medizininformatik-initiative.de/fhir/ext/modul-onko/StructureDefinition/mii-ex-onko-strahlentherapie-bestrahlung-seitenlokalisation",
          "valueCodeableConcept": {
            "coding": [ {
              "system": "https://www.medizininformatik-initiative.de/fhir/ext/modul-onko/CodeSystem/mii-cs-onko-seitenlokalisation",
              "code": "B"
            } ]
          }
        } ],
        "coding": [ {
          "system": "https://www.medizininformatik-initiative.de/fhir/ext/modul-onko/CodeSystem/mii-cs-onko-strahlentherapie-zielgebiet",
          "code": "9.10"
        } ]
      } ],
      "usedCode": [ {
        "coding": [ {
          "system": "https://www.medizininformatik-initiative.de/fhir/ext/modul-onko/CodeSystem/mii-cs-onko-strahlentherapie-applikationsart",
          "code": "PRCN"
        } ]
      } ]
    },
    "request": {
      "method": "PUT",
      "url": "Procedure/fdc760a36dcc078070986f5fa36465ee167e085a2f2e5accd17cf432cf5b266c"
    }
  }, {
    "fullUrl": "AdverseEvent/4fee9db69e213bb816b4dfd0aa49b450922fe8b0c9f771d12413702c6f1ff762",
    "resource": {
      "resourceType": "AdverseEvent",
      "id": "4fee9db69e213bb816b4dfd0aa49b450922fe8b0c9f771d12413702c6f1ff762",
      "meta": {
        "profile": [ "https://www.medizininformatik-initiative.de/fhir/ext/modul-onko/StructureDefinition/mii-pr-onko-nebenwirkung-adverse-event" ]
      },
      "identifier": {
        "system": "https://bzkf.github.io/obds-to-fhir/identifiers/nebenwirkung-adverse-event-id",
        "value": "mii-pr-onko-nebenwirkung-80_1_RAD_1-Grad-maximal-2-unbekannt"
      },
      "actuality": "actual",
      "event": {
        "extension": [ {
          "url": "http://hl7.org/fhir/StructureDefinition/data-absent-reason",
          "valueCode": "not-applicable"
        } ]
      },
      "subject": {
        "reference": "Patient/23283daf4d699cc4b3e9d01cd4ce1344cd94f9f9769dfd88da68b2b696332d48"
      },
      "seriousness": {
        "coding": [ {
          "system": "https://www.medizininformatik-initiative.de/fhir/ext/modul-onko/CodeSystem/mii-cs-onko-nebenwirkung-ctcae-grad",
          "code": "U"
        } ]
      },
      "suspectEntity": [ {
        "instance": {
          "reference": "Procedure/8659f4d846974b09913924a61cb54295e498ab8d1ea36861883c13c3b291c6c1"
        }
      } ]
    },
    "request": {
      "method": "PUT",
      "url": "AdverseEvent/4fee9db69e213bb816b4dfd0aa49b450922fe8b0c9f771d12413702c6f1ff762"
    }
  }, {
    "fullUrl": "Procedure/177d21a6e24969e5a639921f0688163978547b64fd65195940969b759984b142",
    "resource": {
      "resourceType": "Procedure",
      "id": "177d21a6e24969e5a639921f0688163978547b64fd65195940969b759984b142",
      "meta": {
        "profile": [ "https://www.medizininformatik-initiative.de/fhir/ext/modul-onko/StructureDefinition/mii-pr-onko-systemische-therapie" ]
      },
      "extension": [ {
        "url": "https://www.medizininformatik-initiative.de/fhir/ext/modul-onko/StructureDefinition/mii-ex-onko-systemische-therapie-intention",
        "valueCodeableConcept": {
          "coding": [ {
            "system": "https://www.medizininformatik-initiative.de/fhir/ext/modul-onko/CodeSystem/mii-cs-onko-intention",
            "code": "K"
          } ]
        }
      }, {
        "url": "https://www.medizininformatik-initiative.de/fhir/ext/modul-onko/StructureDefinition/mii-ex-onko-strahlentherapie-stellungzurop",
        "valueCodeableConcept": {
          "coding": [ {
            "system": "https://www.medizininformatik-initiative.de/fhir/ext/modul-onko/CodeSystem/mii-cs-therapie-stellungzurop",
            "code": "A"
          } ]
        }
      } ],
      "identifier": [ {
        "system": "https://bzkf.github.io/obds-to-fhir/identifiers/systemische-therapie-procedure-id",
        "value": "80_1_IN_1"
      } ],
      "status": "in-progress",
      "category": {
        "coding": [ {
          "system": "http://snomed.info/sct",
          "version": "http://snomed.info/sct/900000000000207008/version/20250501",
          "code": "18629005",
          "display": "Administration of drug or medicament (procedure)"
        } ]
      },
      "code": {
        "coding": [ {
          "system": "http://fhir.de/CodeSystem/bfarm/ops",
          "version": "2025",
          "code": "6-00",
          "display": "Applikation von Medikamenten"
        }, {
          "system": "https://www.medizininformatik-initiative.de/fhir/ext/modul-onko/CodeSystem/mii-cs-onko-therapie-typ",
          "code": "HO"
        } ],
        "text": "Hormontherapie Buserelin"
      },
      "subject": {
        "reference": "Patient/23283daf4d699cc4b3e9d01cd4ce1344cd94f9f9769dfd88da68b2b696332d48"
      },
      "performedPeriod": {
        "start": "2020-05-10"
      }
    },
    "request": {
      "method": "PUT",
      "url": "Procedure/177d21a6e24969e5a639921f0688163978547b64fd65195940969b759984b142"
    }
  }, {
    "fullUrl": "MedicationStatement/12167c5b6338c99ac31dfdf34df6fd274ae77163662ff6b268cb2cccac183232",
    "resource": {
      "resourceType": "MedicationStatement",
      "id": "12167c5b6338c99ac31dfdf34df6fd274ae77163662ff6b268cb2cccac183232",
      "meta": {
        "profile": [ "https://www.medizininformatik-initiative.de/fhir/ext/modul-onko/StructureDefinition/mii-pr-onko-systemische-therapie-medikation" ]
      },
      "identifier": [ {
        "system": "https://bzkf.github.io/obds-to-fhir/identifiers/systemische-therapie-medication-statement-id",
        "value": "80_1_IN_1-Buserelin"
      } ],
      "partOf": [ {
        "reference": "Procedure/177d21a6e24969e5a639921f0688163978547b64fd65195940969b759984b142"
      } ],
      "status": "active",
      "medicationCodeableConcept": {
        "coding": [ {
          "system": "http://fhir.de/CodeSystem/bfarm/atc",
          "code": "L02AE01"
        } ],
        "text": "Buserelin"
      },
      "subject": {
        "reference": "Patient/23283daf4d699cc4b3e9d01cd4ce1344cd94f9f9769dfd88da68b2b696332d48"
      },
      "effectivePeriod": {
        "start": "2020-05-10"
      }
    },
    "request": {
      "method": "PUT",
      "url": "MedicationStatement/12167c5b6338c99ac31dfdf34df6fd274ae77163662ff6b268cb2cccac183232"
    }
  }, {
    "fullUrl": "AdverseEvent/076316e44da8abdb6ae031d4bf8c8a08c374edb81505a545c7575e4a8bc2baf0",
    "resource": {
      "resourceType": "AdverseEvent",
      "id": "076316e44da8abdb6ae031d4bf8c8a08c374edb81505a545c7575e4a8bc2baf0",
      "meta": {
        "profile": [ "https://www.medizininformatik-initiative.de/fhir/ext/modul-onko/StructureDefinition/mii-pr-onko-nebenwirkung-adverse-event" ]
      },
      "identifier": {
        "system": "https://bzkf.github.io/obds-to-fhir/identifiers/nebenwirkung-adverse-event-id",
        "value": "mii-pr-onko-nebenwirkung-80_1_IN_1-Grad-maximal-2-unbekannt"
      },
      "actuality": "actual",
      "event": {
        "extension": [ {
          "url": "http://hl7.org/fhir/StructureDefinition/data-absent-reason",
          "valueCode": "not-applicable"
        } ]
      },
      "subject": {
        "reference": "Patient/23283daf4d699cc4b3e9d01cd4ce1344cd94f9f9769dfd88da68b2b696332d48"
      },
      "seriousness": {
        "coding": [ {
          "system": "https://www.medizininformatik-initiative.de/fhir/ext/modul-onko/CodeSystem/mii-cs-onko-nebenwirkung-ctcae-grad",
          "code": "U"
        } ]
      },
      "suspectEntity": [ {
        "instance": {
          "reference": "Procedure/177d21a6e24969e5a639921f0688163978547b64fd65195940969b759984b142"
        }
      } ]
    },
    "request": {
      "method": "PUT",
      "url": "AdverseEvent/076316e44da8abdb6ae031d4bf8c8a08c374edb81505a545c7575e4a8bc2baf0"
    }
  }, {
    "fullUrl": "CarePlan/81f483e9ec889c09e5736720c1fe174e078d2dd60b2503e28149866e432eea98",
    "resource": {
      "resourceType": "CarePlan",
      "id": "81f483e9ec889c09e5736720c1fe174e078d2dd60b2503e28149866e432eea98",
      "meta": {
        "profile": [ "https://www.medizininformatik-initiative.de/fhir/ext/modul-onko/StructureDefinition/mii-pr-onko-tumorkonferenz" ]
      },
      "identifier": [ {
        "system": "https://bzkf.github.io/obds-to-fhir/identifiers/tumorkonferenz-care-plan-id",
        "value": "Tumorkonferenz-112"
      } ],
      "status": "active",
      "intent": "plan",
      "category": [ {
        "coding": [ {
          "system": "https://www.medizininformatik-initiative.de/fhir/ext/modul-onko/CodeSystem/mii-cs-onko-therapieplanung-typ",
          "code": "praeth"
        } ]
      } ],
      "subject": {
        "reference": "Patient/23283daf4d699cc4b3e9d01cd4ce1344cd94f9f9769dfd88da68b2b696332d48"
      },
      "created": "2020-05-25",
      "addresses": [ {
        "reference": "Condition/e36f967b5391c0aa1a62a6303672b5415efaf3bfdd0b0be02a0739d43ae0b2dc"
      } ],
      "activity": [ {
        "detail": {
          "code": {
            "coding": [ {
              "system": "https://www.medizininformatik-initiative.de/fhir/ext/modul-onko/CodeSystem/mii-cs-onko-therapie-typ",
              "code": "OP"
            } ]
          },
          "status": "unknown",
          "statusReason": {
            "coding": [ {
              "system": "https://www.medizininformatik-initiative.de/fhir/ext/modul-onko/CodeSystem/mii-cs-onko-therapieabweichung",
              "code": "U"
            } ]
          }
        }
      }, {
        "detail": {
          "code": {
            "coding": [ {
              "system": "https://www.medizininformatik-initiative.de/fhir/ext/modul-onko/CodeSystem/mii-cs-onko-therapie-typ",
              "code": "ST"
            } ]
          },
          "status": "unknown",
          "statusReason": {
            "coding": [ {
              "system": "https://www.medizininformatik-initiative.de/fhir/ext/modul-onko/CodeSystem/mii-cs-onko-therapieabweichung",
              "code": "U"
            } ]
          }
        }
      } ]
    },
    "request": {
      "method": "PUT",
      "url": "CarePlan/81f483e9ec889c09e5736720c1fe174e078d2dd60b2503e28149866e432eea98"
    }
  }, {
    "fullUrl": "Procedure/4226087905f6057b9b71e30b1c5035fbb7a3dc43aab842605f2616611f690e3d",
    "resource": {
      "resourceType": "Procedure",
      "id": "4226087905f6057b9b71e30b1c5035fbb7a3dc43aab842605f2616611f690e3d",
      "meta": {
        "profile": [ "https://www.medizininformatik-initiative.de/fhir/ext/modul-onko/StructureDefinition/mii-pr-onko-operation" ]
      },
      "extension": [ {
        "url": "https://www.medizininformatik-initiative.de/fhir/ext/modul-onko/StructureDefinition/mii-ex-onko-operation-intention",
        "valueCodeableConcept": {
          "coding": [ {
            "system": "https://www.medizininformatik-initiative.de/fhir/ext/modul-onko/CodeSystem/mii-cs-onko-intention",
            "code": "K"
          } ]
        }
      } ],
      "identifier": [ {
        "system": "https://bzkf.github.io/obds-to-fhir/identifiers/operation-procedure-id",
        "value": "147-5-604-12"
      } ],
      "status": "completed",
      "category": {
        "coding": [ {
          "system": "http://snomed.info/sct",
          "version": "http://snomed.info/sct/900000000000207008/version/20250501",
          "code": "387713003",
          "display": "Surgical procedure"
        } ]
      },
      "code": {
        "coding": [ {
          "system": "http://fhir.de/CodeSystem/bfarm/ops",
          "version": "2022",
          "code": "5-604.12"
        } ]
      },
      "subject": {
        "reference": "Patient/23283daf4d699cc4b3e9d01cd4ce1344cd94f9f9769dfd88da68b2b696332d48"
      },
      "performedDateTime": "2020-06-01",
      "reasonReference": [ {
        "reference": "Condition/e36f967b5391c0aa1a62a6303672b5415efaf3bfdd0b0be02a0739d43ae0b2dc"
      } ],
      "outcome": {
        "coding": [ {
          "system": "https://www.medizininformatik-initiative.de/fhir/ext/modul-onko/CodeSystem/mii-cs-onko-residualstatus",
          "code": "R0"
        } ]
      }
    },
    "request": {
      "method": "PUT",
      "url": "Procedure/4226087905f6057b9b71e30b1c5035fbb7a3dc43aab842605f2616611f690e3d"
    }
  }, {
    "fullUrl": "Observation/a042c87268385397f8c5fcb146773ffdaebb26e5accbb5a16823e0c78be0c63f",
    "resource": {
      "resourceType": "Observation",
      "id": "a042c87268385397f8c5fcb146773ffdaebb26e5accbb5a16823e0c78be0c63f",
      "identifier": [ {
        "system": "https://bzkf.github.io/obds-to-fhir/identifiers/residualstatus-observation-id",
        "value": "147"
      } ],
      "status": "final",
      "code": {
        "coding": [ {
          "system": "http://loinc.org",
          "version": "2.80",
          "code": "84892-9",
          "display": "Residual tumor classification [Type] in Cancer specimen"
        } ]
      },
      "subject": {
        "reference": "Patient/23283daf4d699cc4b3e9d01cd4ce1344cd94f9f9769dfd88da68b2b696332d48"
      },
      "focus": [ {
        "reference": "Condition/e36f967b5391c0aa1a62a6303672b5415efaf3bfdd0b0be02a0739d43ae0b2dc"
      } ],
      "effectiveDateTime": "2020-06-01",
      "valueCodeableConcept": {
        "coding": [ {
          "system": "https://www.medizininformatik-initiative.de/fhir/ext/modul-onko/CodeSystem/mii-cs-onko-residualstatus",
          "code": "R0"
        } ]
      }
    },
    "request": {
      "method": "PUT",
      "url": "Observation/a042c87268385397f8c5fcb146773ffdaebb26e5accbb5a16823e0c78be0c63f"
    }
  }, {
    "fullUrl": "Specimen/3f4b5353ca48eb20f58b74421ed6096b53e01f4e735993cc1a2d5df46a49881a",
    "resource": {
      "resourceType": "Specimen",
      "id": "3f4b5353ca48eb20f58b74421ed6096b53e01f4e735993cc1a2d5df46a49881a",
      "meta": {
        "profile": [ "https://www.medizininformatik-initiative.de/fhir/ext/modul-onko/StructureDefinition/mii-pr-onko-specimen" ]
      },
      "identifier": [ {
        "system": "https://bzkf.github.io/obds-to-fhir/identifiers/histologie-specimen-id",
        "value": "274"
      } ],
      "accessionIdentifier": {
        "value": "H16789/2020"
      },
      "subject": {
        "reference": "Patient/23283daf4d699cc4b3e9d01cd4ce1344cd94f9f9769dfd88da68b2b696332d48"
      },
      "collection": {
        "collectedDateTime": "2020-06-01"
      }
    },
    "request": {
      "method": "PUT",
      "url": "Specimen/3f4b5353ca48eb20f58b74421ed6096b53e01f4e735993cc1a2d5df46a49881a"
    }
  }, {
    "fullUrl": "Observation/1d90c66d70a56eddd03e2d2891639ef44367b44b6667acd2e259eef086affd1b",
    "resource": {
      "resourceType": "Observation",
      "id": "1d90c66d70a56eddd03e2d2891639ef44367b44b6667acd2e259eef086affd1b",
      "meta": {
        "profile": [ "https://www.medizininformatik-initiative.de/fhir/ext/modul-onko/StructureDefinition/mii-pr-onko-histologie-icdo3" ]
      },
      "identifier": [ {
        "system": "https://bzkf.github.io/obds-to-fhir/identifiers/verlaufshistologie-observation-id",
        "value": "274-ICDO3-8140-3"
      } ],
      "status": "final",
      "code": {
        "coding": [ {
          "system": "http://loinc.org",
          "version": "2.80",
          "code": "59847-4",
          "display": "Histology and Behavior ICD-O-3 Cancer"
        } ]
      },
      "subject": {
        "reference": "Patient/23283daf4d699cc4b3e9d01cd4ce1344cd94f9f9769dfd88da68b2b696332d48"
      },
      "focus": [ {
        "reference": "Condition/e36f967b5391c0aa1a62a6303672b5415efaf3bfdd0b0be02a0739d43ae0b2dc"
      } ],
      "effectiveDateTime": "2020-06-01",
      "valueCodeableConcept": {
        "coding": [ {
          "system": "http://terminology.hl7.org/CodeSystem/icd-o-3",
          "version": "31",
          "code": "8140/3"
        } ],
        "text": "Adenokarzinom o.n.A."
      },
      "specimen": {
        "reference": "Specimen/3f4b5353ca48eb20f58b74421ed6096b53e01f4e735993cc1a2d5df46a49881a"
      }
    },
    "request": {
      "method": "PUT",
      "url": "Observation/1d90c66d70a56eddd03e2d2891639ef44367b44b6667acd2e259eef086affd1b"
    }
  }, {
    "fullUrl": "Observation/b7cf082240ac3d351f12600867f9ce383fbf1b0d367ed4998b1690095de92f3e",
    "resource": {
      "resourceType": "Observation",
      "id": "b7cf082240ac3d351f12600867f9ce383fbf1b0d367ed4998b1690095de92f3e",
      "meta": {
        "profile": [ "https://www.medizininformatik-initiative.de/fhir/ext/modul-onko/StructureDefinition/mii-pr-onko-grading" ]
      },
      "identifier": [ {
        "system": "https://bzkf.github.io/obds-to-fhir/identifiers/grading-observation-id",
        "value": "274-grading"
      } ],
      "status": "final",
      "category": [ {
        "coding": [ {
          "system": "http://terminology.hl7.org/CodeSystem/observation-category",
          "code": "laboratory"
        } ]
      } ],
      "code": {
        "coding": [ {
          "system": "http://loinc.org",
          "version": "2.80",
          "code": "33732-9",
          "display": "Histology grade [Identifier] in Cancer specimen"
        }, {
          "system": "http://snomed.info/sct",
          "version": "http://snomed.info/sct/900000000000207008/version/20250501",
          "code": "371469007",
          "display": "Histologic grade of neoplasm (observable entity)"
        } ]
      },
      "subject": {
        "reference": "Patient/23283daf4d699cc4b3e9d01cd4ce1344cd94f9f9769dfd88da68b2b696332d48"
      },
      "focus": [ {
        "reference": "Condition/e36f967b5391c0aa1a62a6303672b5415efaf3bfdd0b0be02a0739d43ae0b2dc"
      } ],
      "effectiveDateTime": "2020-06-01",
      "valueCodeableConcept": {
        "coding": [ {
          "system": "https://www.medizininformatik-initiative.de/fhir/ext/modul-onko/CodeSystem/mii-cs-onko-grading",
          "code": "T"
        } ]
      },
      "specimen": {
        "reference": "Specimen/3f4b5353ca48eb20f58b74421ed6096b53e01f4e735993cc1a2d5df46a49881a"
      }
    },
    "request": {
      "method": "PUT",
      "url": "Observation/b7cf082240ac3d351f12600867f9ce383fbf1b0d367ed4998b1690095de92f3e"
    }
  }, {
    "fullUrl": "Observation/85a20f50c33b1d20d3e09e85786b56d07c2d1782425f52a69406c6940fe20080",
    "resource": {
      "resourceType": "Observation",
      "id": "85a20f50c33b1d20d3e09e85786b56d07c2d1782425f52a69406c6940fe20080",
      "meta": {
        "profile": [ "https://www.medizininformatik-initiative.de/fhir/ext/modul-onko/StructureDefinition/mii-pr-onko-anzahl-befallene-lymphknoten" ]
      },
      "identifier": [ {
        "system": "https://bzkf.github.io/obds-to-fhir/identifiers/lymphknotenuntersuchung-observation-id",
        "value": "274-befallen"
      } ],
      "status": "final",
      "category": [ {
        "coding": [ {
          "system": "http://terminology.hl7.org/CodeSystem/observation-category",
          "code": "laboratory"
        } ]
      } ],
      "code": {
        "coding": [ {
          "system": "http://loinc.org",
          "version": "2.80",
          "code": "21893-3"
        }, {
          "system": "http://snomed.info/sct",
          "version": "http://snomed.info/sct/900000000000207008/version/20250501",
          "code": "443527007"
        } ]
      },
      "subject": {
        "reference": "Patient/23283daf4d699cc4b3e9d01cd4ce1344cd94f9f9769dfd88da68b2b696332d48"
      },
      "focus": [ {
        "reference": "Condition/e36f967b5391c0aa1a62a6303672b5415efaf3bfdd0b0be02a0739d43ae0b2dc"
      } ],
      "effectiveDateTime": "2020-06-01",
      "valueQuantity": {
        "value": 3,
        "unit": "#",
        "system": "http://unitsofmeasure.org",
        "code": "1"
      },
      "specimen": {
        "reference": "Specimen/3f4b5353ca48eb20f58b74421ed6096b53e01f4e735993cc1a2d5df46a49881a"
      }
    },
    "request": {
      "method": "PUT",
      "url": "Observation/85a20f50c33b1d20d3e09e85786b56d07c2d1782425f52a69406c6940fe20080"
    }
  }, {
    "fullUrl": "Observation/05dfb80645ea5ee5f6ff34aa5207bccf300090b19ce1e121e4886e69954109ca",
    "resource": {
      "resourceType": "Observation",
      "id": "05dfb80645ea5ee5f6ff34aa5207bccf300090b19ce1e121e4886e69954109ca",
      "meta": {
        "profile": [ "https://www.medizininformatik-initiative.de/fhir/ext/modul-onko/StructureDefinition/mii-pr-onko-anzahl-untersuchte-lymphknoten" ]
      },
      "identifier": [ {
        "system": "https://bzkf.github.io/obds-to-fhir/identifiers/lymphknotenuntersuchung-observation-id",
        "value": "274-untersucht"
      } ],
      "status": "final",
      "category": [ {
        "coding": [ {
          "system": "http://terminology.hl7.org/CodeSystem/observation-category",
          "code": "laboratory"
        } ]
      } ],
      "code": {
        "coding": [ {
          "system": "http://loinc.org",
          "version": "2.80",
          "code": "21894-1"
        }, {
          "system": "http://snomed.info/sct",
          "version": "http://snomed.info/sct/900000000000207008/version/20250501",
          "code": "444025001"
        } ]
      },
      "subject": {
        "reference": "Patient/23283daf4d699cc4b3e9d01cd4ce1344cd94f9f9769dfd88da68b2b696332d48"
      },
      "focus": [ {
        "reference": "Condition/e36f967b5391c0aa1a62a6303672b5415efaf3bfdd0b0be02a0739d43ae0b2dc"
      } ],
      "effectiveDateTime": "2020-06-01",
      "valueQuantity": {
        "value": 10,
        "unit": "#",
        "system": "http://unitsofmeasure.org",
        "code": "1"
      },
      "specimen": {
        "reference": "Specimen/3f4b5353ca48eb20f58b74421ed6096b53e01f4e735993cc1a2d5df46a49881a"
      }
    },
    "request": {
      "method": "PUT",
      "url": "Observation/05dfb80645ea5ee5f6ff34aa5207bccf300090b19ce1e121e4886e69954109ca"
    }
  }, {
    "fullUrl": "Observation/58498d35381386bd49e54dab5c8b7f286fd80e2bfcc88c6616f1f72bfb2d7c56",
    "resource": {
      "resourceType": "Observation",
      "id": "58498d35381386bd49e54dab5c8b7f286fd80e2bfcc88c6616f1f72bfb2d7c56",
      "meta": {
        "profile": [ "https://www.medizininformatik-initiative.de/fhir/ext/modul-onko/StructureDefinition/mii-pr-onko-studienteilnahme" ]
      },
      "identifier": [ {
        "system": "https://bzkf.github.io/obds-to-fhir/identifiers/studienteilnahme-observation-id",
        "value": "OP_80105-Studienteilnahme"
      } ],
      "status": "final",
      "code": {
        "coding": [ {
          "system": "http://snomed.info/sct",
          "version": "http://snomed.info/sct/900000000000207008/version/20250501",
          "code": "709491003",
          "display": "Enrollment in clinical trial (procedure)"
        } ]
      },
      "subject": {
        "reference": "Patient/23283daf4d699cc4b3e9d01cd4ce1344cd94f9f9769dfd88da68b2b696332d48"
      },
      "focus": [ {
        "reference": "Condition/e36f967b5391c0aa1a62a6303672b5415efaf3bfdd0b0be02a0739d43ae0b2dc"
      } ],
      "valueCodeableConcept": {
        "coding": [ {
          "system": "https://www.medizininformatik-initiative.de/fhir/ext/modul-onko/CodeSystem/mii-cs-onko-studienteilnahme",
          "code": "N"
        } ]
      }
    },
    "request": {
      "method": "PUT",
      "url": "Observation/58498d35381386bd49e54dab5c8b7f286fd80e2bfcc88c6616f1f72bfb2d7c56"
    }
  }, {
    "fullUrl": "Observation/96be667cc2b93ec402d24e8763c50e3ab4feae27660b27c0b7b99db9dd1f96b3",
    "resource": {
      "resourceType": "Observation",
      "id": "96be667cc2b93ec402d24e8763c50e3ab4feae27660b27c0b7b99db9dd1f96b3",
      "meta": {
        "profile": [ "https://www.medizininformatik-initiative.de/fhir/ext/modul-onko/StructureDefinition/mii-pr-onko-tnm-t-kategorie" ]
      },
      "identifier": [ {
        "system": "https://bzkf.github.io/obds-to-fhir/identifiers/tnm-t-kategorie-observation-id",
        "value": "257-2020-06-01-T"
      } ],
      "status": "final",
      "code": {
        "extension": [ {
          "url": "https://www.medizininformatik-initiative.de/fhir/ext/modul-onko/StructureDefinition/mii-ex-onko-tnm-cp-praefix",
          "valueCodeableConcept": {
            "coding": [ {
              "system": "https://www.uicc.org/resources/tnm",
              "code": "p"
            } ]
          }
        } ],
        "coding": [ {
          "system": "http://snomed.info/sct",
          "version": "http://snomed.info/sct/900000000000207008/version/20250501",
          "code": "384625004",
          "display": "pT category (observable entity)"
        } ]
      },
      "subject": {
        "reference": "Patient/23283daf4d699cc4b3e9d01cd4ce1344cd94f9f9769dfd88da68b2b696332d48"
      },
      "focus": [ {
        "reference": "Condition/e36f967b5391c0aa1a62a6303672b5415efaf3bfdd0b0be02a0739d43ae0b2dc"
      } ],
      "effectiveDateTime": "2020-06-01",
      "valueCodeableConcept": {
        "coding": [ {
          "system": "https://www.uicc.org/resources/tnm",
          "code": "T2b"
        } ]
      },
      "method": {
        "coding": [ {
          "system": "https://www.medizininformatik-initiative.de/fhir/ext/modul-onko/CodeSystem/mii-cs-onko-tnm-version",
          "code": "8"
        } ]
      }
    },
    "request": {
      "method": "PUT",
      "url": "Observation/96be667cc2b93ec402d24e8763c50e3ab4feae27660b27c0b7b99db9dd1f96b3"
    }
  }, {
    "fullUrl": "Observation/fc79027b9d21630012f31b3f9f3cebe252e8e1798caa65c674e6f673e34579fc",
    "resource": {
      "resourceType": "Observation",
      "id": "fc79027b9d21630012f31b3f9f3cebe252e8e1798caa65c674e6f673e34579fc",
      "meta": {
        "profile": [ "https://www.medizininformatik-initiative.de/fhir/ext/modul-onko/StructureDefinition/mii-pr-onko-tnm-n-kategorie" ]
      },
      "identifier": [ {
        "system": "https://bzkf.github.io/obds-to-fhir/identifiers/tnm-n-kategorie-observation-id",
        "value": "257-2020-06-01-N"
      } ],
      "status": "final",
      "code": {
        "extension": [ {
          "url": "https://www.medizininformatik-initiative.de/fhir/ext/modul-onko/StructureDefinition/mii-ex-onko-tnm-cp-praefix",
          "valueCodeableConcept": {
            "coding": [ {
              "system": "https://www.uicc.org/resources/tnm",
              "code": "p"
            } ]
          }
        } ],
        "coding": [ {
          "system": "http://snomed.info/sct",
          "version": "http://snomed.info/sct/900000000000207008/version/20250501",
          "code": "371494008",
          "display": "pN category (observable entity)"
        } ]
      },
      "subject": {
        "reference": "Patient/23283daf4d699cc4b3e9d01cd4ce1344cd94f9f9769dfd88da68b2b696332d48"
      },
      "focus": [ {
        "reference": "Condition/e36f967b5391c0aa1a62a6303672b5415efaf3bfdd0b0be02a0739d43ae0b2dc"
      } ],
      "effectiveDateTime": "2020-06-01",
      "valueCodeableConcept": {
        "coding": [ {
          "system": "https://www.uicc.org/resources/tnm",
          "code": "N1"
        } ]
      },
      "method": {
        "coding": [ {
          "system": "https://www.medizininformatik-initiative.de/fhir/ext/modul-onko/CodeSystem/mii-cs-onko-tnm-version",
          "code": "8"
        } ]
      }
    },
    "request": {
      "method": "PUT",
      "url": "Observation/fc79027b9d21630012f31b3f9f3cebe252e8e1798caa65c674e6f673e34579fc"
    }
  }, {
    "fullUrl": "Observation/2522d4c8725cc9aeb1a5672802d5e2b8e66f3bbd6f209b3faf4001760ceda94f",
    "resource": {
      "resourceType": "Observation",
      "id": "2522d4c8725cc9aeb1a5672802d5e2b8e66f3bbd6f209b3faf4001760ceda94f",
      "meta": {
        "profile": [ "https://www.medizininformatik-initiative.de/fhir/ext/modul-onko/StructureDefinition/mii-pr-onko-tnm-m-kategorie" ]
      },
      "identifier": [ {
        "system": "https://bzkf.github.io/obds-to-fhir/identifiers/tnm-m-kategorie-observation-id",
        "value": "257-2020-06-01-M"
      } ],
      "status": "final",
      "code": {
        "extension": [ {
          "url": "https://www.medizininformatik-initiative.de/fhir/ext/modul-onko/StructureDefinition/mii-ex-onko-tnm-cp-praefix",
          "valueCodeableConcept": {
            "coding": [ {
              "system": "https://www.uicc.org/resources/tnm",
              "code": "c"
            } ]
          }
        } ],
        "coding": [ {
          "system": "http://snomed.info/sct",
          "version": "http://snomed.info/sct/900000000000207008/version/20250501",
          "code": "399387003",
          "display": "cM category (observable entity)"
        } ]
      },
      "subject": {
        "reference": "Patient/23283daf4d699cc4b3e9d01cd4ce1344cd94f9f9769dfd88da68b2b696332d48"
      },
      "focus": [ {
        "reference": "Condition/e36f967b5391c0aa1a62a6303672b5415efaf3bfdd0b0be02a0739d43ae0b2dc"
      } ],
      "effectiveDateTime": "2020-06-01",
      "valueCodeableConcept": {
        "coding": [ {
          "system": "https://www.uicc.org/resources/tnm",
          "code": "M0"
        } ]
      },
      "method": {
        "coding": [ {
          "system": "https://www.medizininformatik-initiative.de/fhir/ext/modul-onko/CodeSystem/mii-cs-onko-tnm-version",
          "code": "8"
        } ]
      }
    },
    "request": {
      "method": "PUT",
      "url": "Observation/2522d4c8725cc9aeb1a5672802d5e2b8e66f3bbd6f209b3faf4001760ceda94f"
    }
  }, {
    "fullUrl": "Observation/b5626ee2ce02b3ac3b3a28a93d6e1d4a70fa4ef7c34b186f0b8dd203cc31ef59",
    "resource": {
      "resourceType": "Observation",
      "id": "b5626ee2ce02b3ac3b3a28a93d6e1d4a70fa4ef7c34b186f0b8dd203cc31ef59",
      "meta": {
        "profile": [ "https://www.medizininformatik-initiative.de/fhir/ext/modul-onko/StructureDefinition/mii-pr-onko-tnm-l-kategorie" ]
      },
      "identifier": [ {
        "system": "https://bzkf.github.io/obds-to-fhir/identifiers/tnm-l-kategorie-observation-id",
        "value": "257-2020-06-01-L"
      } ],
      "status": "final",
      "code": {
        "coding": [ {
          "system": "http://snomed.info/sct",
          "version": "http://snomed.info/sct/900000000000207008/version/20250501",
          "code": "395715009",
          "display": "Status of lymphatic (small vessel) invasion by tumor (observable entity)"
        } ]
      },
      "subject": {
        "reference": "Patient/23283daf4d699cc4b3e9d01cd4ce1344cd94f9f9769dfd88da68b2b696332d48"
      },
      "focus": [ {
        "reference": "Condition/e36f967b5391c0aa1a62a6303672b5415efaf3bfdd0b0be02a0739d43ae0b2dc"
      } ],
      "effectiveDateTime": "2020-06-01",
      "valueCodeableConcept": {
        "coding": [ {
          "system": "https://www.uicc.org/resources/tnm",
          "code": "L1"
        } ]
      },
      "method": {
        "coding": [ {
          "system": "https://www.medizininformatik-initiative.de/fhir/ext/modul-onko/CodeSystem/mii-cs-onko-tnm-version",
          "code": "8"
        } ]
      }
    },
    "request": {
      "method": "PUT",
      "url": "Observation/b5626ee2ce02b3ac3b3a28a93d6e1d4a70fa4ef7c34b186f0b8dd203cc31ef59"
    }
  }, {
    "fullUrl": "Observation/0b57b6d1f522793a7b1d503110e781f478f85274da5998d58b56b873ff06c41c",
    "resource": {
      "resourceType": "Observation",
      "id": "0b57b6d1f522793a7b1d503110e781f478f85274da5998d58b56b873ff06c41c",
      "meta": {
        "profile": [ "https://www.medizininformatik-initiative.de/fhir/ext/modul-onko/StructureDefinition/mii-pr-onko-tnm-pn-kategorie" ]
      },
      "identifier": [ {
        "system": "https://bzkf.github.io/obds-to-fhir/identifiers/tnm-pn-kategorie-observation-id",
        "value": "257-2020-06-01-Pn"
      } ],
      "status": "final",
      "code": {
        "coding": [ {
          "system": "http://snomed.info/sct",
          "version": "http://snomed.info/sct/900000000000207008/version/20250501",
          "code": "371513001",
          "display": "Presence of direct invasion by primary malignant neoplasm to nerve (observable entity)"
        } ]
      },
      "subject": {
        "reference": "Patient/23283daf4d699cc4b3e9d01cd4ce1344cd94f9f9769dfd88da68b2b696332d48"
      },
      "focus": [ {
        "reference": "Condition/e36f967b5391c0aa1a62a6303672b5415efaf3bfdd0b0be02a0739d43ae0b2dc"
      } ],
      "effectiveDateTime": "2020-06-01",
      "valueCodeableConcept": {
        "coding": [ {
          "system": "https://www.uicc.org/resources/tnm",
          "code": "Pn1"
        } ]
      },
      "method": {
        "coding": [ {
          "system": "https://www.medizininformatik-initiative.de/fhir/ext/modul-onko/CodeSystem/mii-cs-onko-tnm-version",
          "code": "8"
        } ]
      }
    },
    "request": {
      "method": "PUT",
      "url": "Observation/0b57b6d1f522793a7b1d503110e781f478f85274da5998d58b56b873ff06c41c"
    }
  }, {
    "fullUrl": "Observation/d0719bfcd09e72da2b8b18c65727b6159740dfaae3ee71c84cfc89c4f963e40e",
    "resource": {
      "resourceType": "Observation",
      "id": "d0719bfcd09e72da2b8b18c65727b6159740dfaae3ee71c84cfc89c4f963e40e",
      "meta": {
        "profile": [ "https://www.medizininformatik-initiative.de/fhir/ext/modul-onko/StructureDefinition/mii-pr-onko-tnm-v-kategorie" ]
      },
      "identifier": [ {
        "system": "https://bzkf.github.io/obds-to-fhir/identifiers/tnm-v-kategorie-observation-id",
        "value": "257-2020-06-01-V"
      } ],
      "status": "final",
      "code": {
        "coding": [ {
          "system": "http://snomed.info/sct",
          "version": "http://snomed.info/sct/900000000000207008/version/20250501",
          "code": "371493002",
          "display": "Status of venous (large vessel) invasion by tumor (observable entity)"
        } ]
      },
      "subject": {
        "reference": "Patient/23283daf4d699cc4b3e9d01cd4ce1344cd94f9f9769dfd88da68b2b696332d48"
      },
      "focus": [ {
        "reference": "Condition/e36f967b5391c0aa1a62a6303672b5415efaf3bfdd0b0be02a0739d43ae0b2dc"
      } ],
      "effectiveDateTime": "2020-06-01",
      "valueCodeableConcept": {
        "coding": [ {
          "system": "https://www.uicc.org/resources/tnm",
          "code": "V0"
        } ]
      },
      "method": {
        "coding": [ {
          "system": "https://www.medizininformatik-initiative.de/fhir/ext/modul-onko/CodeSystem/mii-cs-onko-tnm-version",
          "code": "8"
        } ]
      }
    },
    "request": {
      "method": "PUT",
      "url": "Observation/d0719bfcd09e72da2b8b18c65727b6159740dfaae3ee71c84cfc89c4f963e40e"
    }
  }, {
    "fullUrl": "Observation/409b1d326f2272d03a4449f9e5aabd5c428a0cc86642a562387a31f20411ef03",
    "resource": {
      "resourceType": "Observation",
      "id": "409b1d326f2272d03a4449f9e5aabd5c428a0cc86642a562387a31f20411ef03",
      "meta": {
        "profile": [ "https://www.medizininformatik-initiative.de/fhir/ext/modul-onko/StructureDefinition/mii-pr-onko-tnm-klassifikation" ]
      },
      "identifier": [ {
        "system": "https://bzkf.github.io/obds-to-fhir/identifiers/tnm-grouping-observation-id",
        "value": "257-2020-06-01"
      } ],
      "status": "final",
      "code": {
        "coding": [ {
          "system": "http://snomed.info/sct",
          "version": "http://snomed.info/sct/900000000000207008/version/20250501",
          "code": "399390009",
          "display": "TNM stage grouping"
        } ]
      },
      "subject": {
        "reference": "Patient/23283daf4d699cc4b3e9d01cd4ce1344cd94f9f9769dfd88da68b2b696332d48"
      },
      "focus": [ {
        "reference": "Condition/e36f967b5391c0aa1a62a6303672b5415efaf3bfdd0b0be02a0739d43ae0b2dc"
      } ],
      "effectiveDateTime": "2020-06-01",
      "valueCodeableConcept": {
        "coding": [ {
          "system": "https://www.uicc.org/resources/tnm",
          "code": "IV",
          "display": "Stadium IV"
        } ]
      },
      "method": {
        "coding": [ {
          "system": "https://www.medizininformatik-initiative.de/fhir/ext/modul-onko/CodeSystem/mii-cs-onko-tnm-version",
          "code": "8"
        } ]
      },
      "hasMember": [ {
        "reference": "Observation/96be667cc2b93ec402d24e8763c50e3ab4feae27660b27c0b7b99db9dd1f96b3"
      }, {
        "reference": "Observation/fc79027b9d21630012f31b3f9f3cebe252e8e1798caa65c674e6f673e34579fc"
      }, {
        "reference": "Observation/2522d4c8725cc9aeb1a5672802d5e2b8e66f3bbd6f209b3faf4001760ceda94f"
      }, {
        "reference": "Observation/b5626ee2ce02b3ac3b3a28a93d6e1d4a70fa4ef7c34b186f0b8dd203cc31ef59"
      }, {
        "reference": "Observation/0b57b6d1f522793a7b1d503110e781f478f85274da5998d58b56b873ff06c41c"
      }, {
        "reference": "Observation/d0719bfcd09e72da2b8b18c65727b6159740dfaae3ee71c84cfc89c4f963e40e"
      } ]
    },
    "request": {
      "method": "PUT",
      "url": "Observation/409b1d326f2272d03a4449f9e5aabd5c428a0cc86642a562387a31f20411ef03"
    }
  }, {
    "fullUrl": "Observation/36a33df5231dcb1b597e02f82ebad5844bc7b7cea22ba76657d6b74e52e53617",
    "resource": {
      "resourceType": "Observation",
      "id": "36a33df5231dcb1b597e02f82ebad5844bc7b7cea22ba76657d6b74e52e53617",
      "identifier": [ {
        "system": "https://bzkf.github.io/obds-to-fhir/identifiers/gleason-score-observation-id",
        "value": "gleason-score-OP_80105"
      } ],
      "status": "final",
      "code": {
        "coding": [ {
          "system": "http://snomed.info/sct",
          "version": "http://snomed.info/sct/900000000000207008/version/20250501",
          "code": "385377005",
          "display": "Gleason grade finding for prostatic cancer (finding)"
        } ]
      },
      "subject": {
        "reference": "Patient/23283daf4d699cc4b3e9d01cd4ce1344cd94f9f9769dfd88da68b2b696332d48"
      },
      "focus": [ {
        "reference": "Condition/e36f967b5391c0aa1a62a6303672b5415efaf3bfdd0b0be02a0739d43ae0b2dc"
      } ],
      "effectiveDateTime": "2020-06-01",
      "valueCodeableConcept": {
        "coding": [ {
          "extension": [ {
            "url": "http://hl7.org/fhir/StructureDefinition/ordinalValue",
            "valueDecimal": 8
          } ],
          "system": "http://snomed.info/sct",
          "version": "http://snomed.info/sct/900000000000207008/version/20250501",
          "code": "33013007"
        } ],
        "text": "8"
      },
      "method": {
        "coding": [ {
          "system": "http://snomed.info/sct",
          "version": "http://snomed.info/sct/900000000000207008/version/20250501",
          "code": "65801008",
          "display": "Excision (procedure)"
        } ]
      },
      "component": [ {
        "code": {
          "coding": [ {
            "system": "http://snomed.info/sct",
            "version": "http://snomed.info/sct/900000000000207008/version/20250501",
            "code": "384994009",
            "display": "Primary Gleason pattern"
          } ]
        },
        "valueInteger": 4
      }, {
        "code": {
          "coding": [ {
            "system": "http://snomed.info/sct",
            "version": "http://snomed.info/sct/900000000000207008/version/20250501",
            "code": "384995005",
            "display": "Secondary Gleason pattern"
          } ]
        },
        "valueInteger": 4
      } ]
    },
    "request": {
      "method": "PUT",
      "url": "Observation/36a33df5231dcb1b597e02f82ebad5844bc7b7cea22ba76657d6b74e52e53617"
    }
  }, {
    "fullUrl": "Observation/ba0cf567e987cbfa36fec0461457e4e9fb858d763ad0de444f3431f453ed5400",
    "resource": {
      "resourceType": "Observation",
      "id": "ba0cf567e987cbfa36fec0461457e4e9fb858d763ad0de444f3431f453ed5400",
      "meta": {
        "profile": [ "https://www.medizininformatik-initiative.de/fhir/ext/modul-onko/StructureDefinition/mii-pr-onko-verlauf" ]
      },
      "identifier": [ {
        "system": "https://bzkf.github.io/obds-to-fhir/identifiers/verlauf-observation-id",
        "value": "159"
      } ],
      "status": "final",
      "code": {
        "coding": [ {
          "system": "http://snomed.info/sct",
          "version": "http://snomed.info/sct/900000000000207008/version/20250501",
          "code": "396432002",
          "display": "Status of regression of tumor (observable entity)"
        } ]
      },
      "subject": {
        "reference": "Patient/23283daf4d699cc4b3e9d01cd4ce1344cd94f9f9769dfd88da68b2b696332d48"
      },
      "focus": [ {
        "reference": "Condition/e36f967b5391c0aa1a62a6303672b5415efaf3bfdd0b0be02a0739d43ae0b2dc"
      } ],
      "effectiveDateTime": "2020-10-14",
      "valueCodeableConcept": {
        "coding": [ {
          "system": "https://www.medizininformatik-initiative.de/fhir/ext/modul-onko/CodeSystem/mii-cs-onko-verlauf-gesamtbeurteilung",
          "code": "V",
          "display": "Vollremission"
        } ]
      },
      "component": [ {
        "code": {
          "coding": [ {
            "system": "http://snomed.info/sct",
            "version": "http://snomed.info/sct/900000000000207008/version/20250501",
            "code": "277062004",
            "display": "Status des Residualtumors"
          } ]
        },
        "valueCodeableConcept": {
          "coding": [ {
            "system": "https://www.medizininformatik-initiative.de/fhir/ext/modul-onko/CodeSystem/mii-cs-onko-verlauf-primaertumor",
            "code": "K",
            "display": "kein Tumor nachweisbar"
          } ]
        }
      }, {
        "code": {
          "coding": [ {
            "system": "http://snomed.info/sct",
            "version": "http://snomed.info/sct/900000000000207008/version/20250501",
            "code": "399656008",
            "display": "Status of tumor metastasis to regional lymph nodes (observable entity)"
          } ]
        },
        "valueCodeableConcept": {
          "coding": [ {
            "system": "https://www.medizininformatik-initiative.de/fhir/ext/modul-onko/CodeSystem/mii-cs-onko-verlauf-lymphknoten",
            "code": "K",
            "display": "kein Lymphknotenbefall nachweisbar"
          } ]
        }
      }, {
        "code": {
          "coding": [ {
            "system": "http://snomed.info/sct",
            "version": "http://snomed.info/sct/900000000000207008/version/20250501",
            "code": "399608002",
            "display": "Status of distant metastasis (observable entity)"
          } ]
        },
        "valueCodeableConcept": {
          "coding": [ {
            "system": "https://www.medizininformatik-initiative.de/fhir/ext/modul-onko/CodeSystem/mii-cs-onko-verlauf-fernmetastasen",
            "code": "K",
            "display": "keine Fernmetastasen nachweisbar"
          } ]
        }
      } ]
    },
    "request": {
      "method": "PUT",
      "url": "Observation/ba0cf567e987cbfa36fec0461457e4e9fb858d763ad0de444f3431f453ed5400"
    }
  }, {
    "fullUrl": "Observation/4eccc5f8d8499c776dffe9e481c7582889e29158fe5b8061825c69f9a904d42c",
    "resource": {
      "resourceType": "Observation",
      "id": "4eccc5f8d8499c776dffe9e481c7582889e29158fe5b8061825c69f9a904d42c",
      "meta": {
        "profile": [ "https://www.medizininformatik-initiative.de/fhir/ext/modul-onko/StructureDefinition/mii-pr-onko-allgemeiner-leistungszustand-ecog" ]
      },
      "identifier": [ {
        "system": "https://bzkf.github.io/obds-to-fhir/identifiers/allgemeiner-leistungszustand-ecog-id",
        "value": "ECOG-VER_80107"
      } ],
      "status": "final",
      "code": {
        "coding": [ {
          "system": "http://snomed.info/sct",
          "version": "http://snomed.info/sct/900000000000207008/version/20250501",
          "code": "423740007",
          "display": "Eastern Cooperative Oncology Group performance status (observable entity)"
        } ]
      },
      "subject": {
        "reference": "Patient/23283daf4d699cc4b3e9d01cd4ce1344cd94f9f9769dfd88da68b2b696332d48"
      },
      "focus": [ {
        "reference": "Condition/e36f967b5391c0aa1a62a6303672b5415efaf3bfdd0b0be02a0739d43ae0b2dc"
      } ],
      "effectiveDateTime": "2020-10-14",
      "valueCodeableConcept": {
        "coding": [ {
          "system": "https://www.medizininformatik-initiative.de/fhir/ext/modul-onko/CodeSystem/mii-cs-onko-allgemeiner-leistungszustand-ecog",
          "code": "1",
          "display": "Einschrnkung bei krperlicher Anstrengung, aber gehfhig; leichte krperliche Arbeit bzw. Arbeit im Sitzen (z. B. leichte Hausarbeit oder Broarbeit) mglich (70 - 80 % nach Karnofsky)"
        } ]
      }
    },
    "request": {
      "method": "PUT",
      "url": "Observation/4eccc5f8d8499c776dffe9e481c7582889e29158fe5b8061825c69f9a904d42c"
    }
  }, {
    "fullUrl": "CarePlan/535b3cf6352a96e7e439b0df9f6cdeaf6e35f6ee8119e2d46f076ee455aad9b5",
    "resource": {
      "resourceType": "CarePlan",
      "id": "535b3cf6352a96e7e439b0df9f6cdeaf6e35f6ee8119e2d46f076ee455aad9b5",
      "meta": {
        "profile": [ "https://www.medizininformatik-initiative.de/fhir/ext/modul-onko/StructureDefinition/mii-pr-onko-tumorkonferenz" ]
      },
      "identifier": [ {
        "system": "https://bzkf.github.io/obds-to-fhir/identifiers/tumorkonferenz-care-plan-id",
        "value": "Tumorkonferenz-113"
      } ],
      "status": "completed",
      "intent": "plan",
      "category": [ {
        "coding": [ {
          "system": "https://www.medizininformatik-initiative.de/fhir/ext/modul-onko/CodeSystem/mii-cs-onko-therapieplanung-typ",
          "code": "postop"
        } ]
      } ],
      "subject": {
        "reference": "Patient/23283daf4d699cc4b3e9d01cd4ce1344cd94f9f9769dfd88da68b2b696332d48"
      },
      "created": "2020-06-10",
      "addresses": [ {
        "reference": "Condition/e36f967b5391c0aa1a62a6303672b5415efaf3bfdd0b0be02a0739d43ae0b2dc"
      } ],
      "activity": [ {
        "detail": {
          "code": {
            "coding": [ {
              "system": "https://www.medizininformatik-initiative.de/fhir/ext/modul-onko/CodeSystem/mii-cs-onko-therapie-typ",
              "code": "ST"
            } ]
          },
          "status": "unknown",
          "statusReason": {
            "coding": [ {
              "system": "https://www.medizininformatik-initiative.de/fhir/ext/modul-onko/CodeSystem/mii-cs-onko-therapieabweichung",
              "code": "U"
            } ]
          }
        }
      }, {
        "detail": {
          "code": {
            "coding": [ {
              "system": "https://www.medizininformatik-initiative.de/fhir/ext/modul-onko/CodeSystem/mii-cs-onko-therapie-typ",
              "code": "HO"
            } ]
          },
          "status": "unknown",
          "statusReason": {
            "coding": [ {
              "system": "https://www.medizininformatik-initiative.de/fhir/ext/modul-onko/CodeSystem/mii-cs-onko-therapieabweichung",
              "code": "U"
            } ]
          }
        }
      } ]
    },
    "request": {
      "method": "PUT",
      "url": "CarePlan/535b3cf6352a96e7e439b0df9f6cdeaf6e35f6ee8119e2d46f076ee455aad9b5"
    }
  }, {
    "fullUrl": "Observation/33ffb713694408e707d2cdcc4ce660a637c11a9470ca973e8a62f4354d950d9c",
    "resource": {
      "resourceType": "Observation",
      "id": "33ffb713694408e707d2cdcc4ce660a637c11a9470ca973e8a62f4354d950d9c",
      "meta": {
        "profile": [ "https://www.medizininformatik-initiative.de/fhir/ext/modul-onko/StructureDefinition/mii-pr-onko-allgemeiner-leistungszustand-ecog" ]
      },
      "identifier": [ {
        "system": "https://bzkf.github.io/obds-to-fhir/identifiers/allgemeiner-leistungszustand-ecog-id",
        "value": "ECOG-DIA_80106"
      } ],
      "status": "final",
      "code": {
        "coding": [ {
          "system": "http://snomed.info/sct",
          "version": "http://snomed.info/sct/900000000000207008/version/20250501",
          "code": "423740007",
          "display": "Eastern Cooperative Oncology Group performance status (observable entity)"
        } ]
      },
      "subject": {
        "reference": "Patient/23283daf4d699cc4b3e9d01cd4ce1344cd94f9f9769dfd88da68b2b696332d48"
      },
      "focus": [ {
        "reference": "Condition/e36f967b5391c0aa1a62a6303672b5415efaf3bfdd0b0be02a0739d43ae0b2dc"
      } ],
      "effectiveDateTime": "2020-05-10",
      "valueCodeableConcept": {
        "coding": [ {
          "system": "https://www.medizininformatik-initiative.de/fhir/ext/modul-onko/CodeSystem/mii-cs-onko-allgemeiner-leistungszustand-ecog",
          "code": "0",
          "display": "Normale, uneingeschrnkte Aktivitt wie vor der Erkrankung (90 - 100 % nach Karnofsky)"
        } ]
      }
    },
    "request": {
      "method": "PUT",
      "url": "Observation/33ffb713694408e707d2cdcc4ce660a637c11a9470ca973e8a62f4354d950d9c"
    }
  }, {
    "fullUrl": "Specimen/f6c1695af05f9b43c6e3cb2b5ff6c444873b8ef0d04d7f1836938d04755d1c96",
    "resource": {
      "resourceType": "Specimen",
      "id": "f6c1695af05f9b43c6e3cb2b5ff6c444873b8ef0d04d7f1836938d04755d1c96",
      "meta": {
        "profile": [ "https://www.medizininformatik-initiative.de/fhir/ext/modul-onko/StructureDefinition/mii-pr-onko-specimen" ]
      },
      "identifier": [ {
        "system": "https://bzkf.github.io/obds-to-fhir/identifiers/histologie-specimen-id",
        "value": "275"
      } ],
      "accessionIdentifier": {
        "value": "H14672/2020"
      },
      "subject": {
        "reference": "Patient/23283daf4d699cc4b3e9d01cd4ce1344cd94f9f9769dfd88da68b2b696332d48"
      },
      "collection": {
        "collectedDateTime": "2020-05-10"
      }
    },
    "request": {
      "method": "PUT",
      "url": "Specimen/f6c1695af05f9b43c6e3cb2b5ff6c444873b8ef0d04d7f1836938d04755d1c96"
    }
  }, {
    "fullUrl": "Observation/c5973b2674e2efe25549a9aad0e5e63ac5a1aad18057623dc9670d24c2c5421d",
    "resource": {
      "resourceType": "Observation",
      "id": "c5973b2674e2efe25549a9aad0e5e63ac5a1aad18057623dc9670d24c2c5421d",
      "meta": {
        "profile": [ "https://www.medizininformatik-initiative.de/fhir/ext/modul-onko/StructureDefinition/mii-pr-onko-grading" ]
      },
      "identifier": [ {
        "system": "https://bzkf.github.io/obds-to-fhir/identifiers/grading-observation-id",
        "value": "275-grading"
      } ],
      "status": "final",
      "category": [ {
        "coding": [ {
          "system": "http://terminology.hl7.org/CodeSystem/observation-category",
          "code": "laboratory"
        } ]
      } ],
      "code": {
        "coding": [ {
          "system": "http://loinc.org",
          "version": "2.80",
          "code": "33732-9",
          "display": "Histology grade [Identifier] in Cancer specimen"
        }, {
          "system": "http://snomed.info/sct",
          "version": "http://snomed.info/sct/900000000000207008/version/20250501",
          "code": "371469007",
          "display": "Histologic grade of neoplasm (observable entity)"
        } ]
      },
      "subject": {
        "reference": "Patient/23283daf4d699cc4b3e9d01cd4ce1344cd94f9f9769dfd88da68b2b696332d48"
      },
      "focus": [ {
        "reference": "Condition/e36f967b5391c0aa1a62a6303672b5415efaf3bfdd0b0be02a0739d43ae0b2dc"
      } ],
      "effectiveDateTime": "2020-05-10",
      "valueCodeableConcept": {
        "coding": [ {
          "system": "https://www.medizininformatik-initiative.de/fhir/ext/modul-onko/CodeSystem/mii-cs-onko-grading",
          "code": "T"
        } ]
      },
      "specimen": {
        "reference": "Specimen/f6c1695af05f9b43c6e3cb2b5ff6c444873b8ef0d04d7f1836938d04755d1c96"
      }
    },
    "request": {
      "method": "PUT",
      "url": "Observation/c5973b2674e2efe25549a9aad0e5e63ac5a1aad18057623dc9670d24c2c5421d"
    }
  }, {
    "fullUrl": "Observation/591fb5c2579a47881201616aa0da7a0c9de690822165811c4c8411e882d2de86",
    "resource": {
      "resourceType": "Observation",
      "id": "591fb5c2579a47881201616aa0da7a0c9de690822165811c4c8411e882d2de86",
      "meta": {
        "profile": [ "https://www.medizininformatik-initiative.de/fhir/ext/modul-onko/StructureDefinition/mii-pr-onko-tnm-t-kategorie" ]
      },
      "identifier": [ {
        "system": "https://bzkf.github.io/obds-to-fhir/identifiers/tnm-t-kategorie-observation-id",
        "value": "258-c-2020-05-10-T"
      } ],
      "status": "final",
      "code": {
        "extension": [ {
          "url": "https://www.medizininformatik-initiative.de/fhir/ext/modul-onko/StructureDefinition/mii-ex-onko-tnm-cp-praefix",
          "valueCodeableConcept": {
            "coding": [ {
              "system": "https://www.uicc.org/resources/tnm",
              "code": "c"
            } ]
          }
        } ],
        "coding": [ {
          "system": "http://snomed.info/sct",
          "version": "http://snomed.info/sct/900000000000207008/version/20250501",
          "code": "399504009",
          "display": "cT category (observable entity)"
        } ]
      },
      "subject": {
        "reference": "Patient/23283daf4d699cc4b3e9d01cd4ce1344cd94f9f9769dfd88da68b2b696332d48"
      },
      "focus": [ {
        "reference": "Condition/e36f967b5391c0aa1a62a6303672b5415efaf3bfdd0b0be02a0739d43ae0b2dc"
      } ],
      "effectiveDateTime": "2020-05-10",
      "valueCodeableConcept": {
        "coding": [ {
          "system": "https://www.uicc.org/resources/tnm",
          "code": "T1c"
        } ]
      },
      "method": {
        "coding": [ {
          "system": "https://www.medizininformatik-initiative.de/fhir/ext/modul-onko/CodeSystem/mii-cs-onko-tnm-version",
          "code": "8"
        } ]
      }
    },
    "request": {
      "method": "PUT",
      "url": "Observation/591fb5c2579a47881201616aa0da7a0c9de690822165811c4c8411e882d2de86"
    }
  }, {
    "fullUrl": "Observation/db48621a1515b851640e19fc1e05b3ffa67c65792f97d2c4d74f256f467bae39",
    "resource": {
      "resourceType": "Observation",
      "id": "db48621a1515b851640e19fc1e05b3ffa67c65792f97d2c4d74f256f467bae39",
      "meta": {
        "profile": [ "https://www.medizininformatik-initiative.de/fhir/ext/modul-onko/StructureDefinition/mii-pr-onko-tnm-n-kategorie" ]
      },
      "identifier": [ {
        "system": "https://bzkf.github.io/obds-to-fhir/identifiers/tnm-n-kategorie-observation-id",
        "value": "258-c-2020-05-10-N"
      } ],
      "status": "final",
      "code": {
        "extension": [ {
          "url": "https://www.medizininformatik-initiative.de/fhir/ext/modul-onko/StructureDefinition/mii-ex-onko-tnm-cp-praefix",
          "valueCodeableConcept": {
            "coding": [ {
              "system": "https://www.uicc.org/resources/tnm",
              "code": "c"
            } ]
          }
        } ],
        "coding": [ {
          "system": "http://snomed.info/sct",
          "version": "http://snomed.info/sct/900000000000207008/version/20250501",
          "code": "399534004",
          "display": "cN category (observable entity)"
        } ]
      },
      "subject": {
        "reference": "Patient/23283daf4d699cc4b3e9d01cd4ce1344cd94f9f9769dfd88da68b2b696332d48"
      },
      "focus": [ {
        "reference": "Condition/e36f967b5391c0aa1a62a6303672b5415efaf3bfdd0b0be02a0739d43ae0b2dc"
      } ],
      "effectiveDateTime": "2020-05-10",
      "valueCodeableConcept": {
        "coding": [ {
          "system": "https://www.uicc.org/resources/tnm",
          "code": "N0"
        } ]
      },
      "method": {
        "coding": [ {
          "system": "https://www.medizininformatik-initiative.de/fhir/ext/modul-onko/CodeSystem/mii-cs-onko-tnm-version",
          "code": "8"
        } ]
      }
    },
    "request": {
      "method": "PUT",
      "url": "Observation/db48621a1515b851640e19fc1e05b3ffa67c65792f97d2c4d74f256f467bae39"
    }
  }, {
    "fullUrl": "Observation/05449fc49ef31442263e96544b76404f384e5fab5616d8fe9a9370defaeb240c",
    "resource": {
      "resourceType": "Observation",
      "id": "05449fc49ef31442263e96544b76404f384e5fab5616d8fe9a9370defaeb240c",
      "meta": {
        "profile": [ "https://www.medizininformatik-initiative.de/fhir/ext/modul-onko/StructureDefinition/mii-pr-onko-tnm-m-kategorie" ]
      },
      "identifier": [ {
        "system": "https://bzkf.github.io/obds-to-fhir/identifiers/tnm-m-kategorie-observation-id",
        "value": "258-c-2020-05-10-M"
      } ],
      "status": "final",
      "code": {
        "extension": [ {
          "url": "https://www.medizininformatik-initiative.de/fhir/ext/modul-onko/StructureDefinition/mii-ex-onko-tnm-cp-praefix",
          "valueCodeableConcept": {
            "coding": [ {
              "system": "https://www.uicc.org/resources/tnm",
              "code": "c"
            } ]
          }
        } ],
        "coding": [ {
          "system": "http://snomed.info/sct",
          "version": "http://snomed.info/sct/900000000000207008/version/20250501",
          "code": "399387003",
          "display": "cM category (observable entity)"
        } ]
      },
      "subject": {
        "reference": "Patient/23283daf4d699cc4b3e9d01cd4ce1344cd94f9f9769dfd88da68b2b696332d48"
      },
      "focus": [ {
        "reference": "Condition/e36f967b5391c0aa1a62a6303672b5415efaf3bfdd0b0be02a0739d43ae0b2dc"
      } ],
      "effectiveDateTime": "2020-05-10",
      "valueCodeableConcept": {
        "coding": [ {
          "system": "https://www.uicc.org/resources/tnm",
          "code": "M0"
        } ]
      },
      "method": {
        "coding": [ {
          "system": "https://www.medizininformatik-initiative.de/fhir/ext/modul-onko/CodeSystem/mii-cs-onko-tnm-version",
          "code": "8"
        } ]
      }
    },
    "request": {
      "method": "PUT",
      "url": "Observation/05449fc49ef31442263e96544b76404f384e5fab5616d8fe9a9370defaeb240c"
    }
  }, {
    "fullUrl": "Observation/e9db40b50e0855c5706ac3434b17995ae34474f4506e8789d7937df8f25a8f00",
    "resource": {
      "resourceType": "Observation",
      "id": "e9db40b50e0855c5706ac3434b17995ae34474f4506e8789d7937df8f25a8f00",
      "meta": {
        "profile": [ "https://www.medizininformatik-initiative.de/fhir/ext/modul-onko/StructureDefinition/mii-pr-onko-tnm-klassifikation" ]
      },
      "identifier": [ {
        "system": "https://bzkf.github.io/obds-to-fhir/identifiers/tnm-grouping-observation-id",
        "value": "258-c-2020-05-10"
      } ],
      "status": "final",
      "code": {
        "coding": [ {
          "system": "http://snomed.info/sct",
          "version": "http://snomed.info/sct/900000000000207008/version/20250501",
          "code": "399537006",
          "display": "Clinical TNM stage grouping"
        } ]
      },
      "subject": {
        "reference": "Patient/23283daf4d699cc4b3e9d01cd4ce1344cd94f9f9769dfd88da68b2b696332d48"
      },
      "focus": [ {
        "reference": "Condition/e36f967b5391c0aa1a62a6303672b5415efaf3bfdd0b0be02a0739d43ae0b2dc"
      } ],
      "effectiveDateTime": "2020-05-10",
      "valueCodeableConcept": {
        "coding": [ {
          "system": "https://www.uicc.org/resources/tnm",
          "code": "I",
          "display": "Stadium I"
        } ]
      },
      "method": {
        "coding": [ {
          "system": "https://www.medizininformatik-initiative.de/fhir/ext/modul-onko/CodeSystem/mii-cs-onko-tnm-version",
          "code": "8"
        } ]
      },
      "hasMember": [ {
        "reference": "Observation/591fb5c2579a47881201616aa0da7a0c9de690822165811c4c8411e882d2de86"
      }, {
        "reference": "Observation/db48621a1515b851640e19fc1e05b3ffa67c65792f97d2c4d74f256f467bae39"
      }, {
        "reference": "Observation/05449fc49ef31442263e96544b76404f384e5fab5616d8fe9a9370defaeb240c"
      } ]
    },
    "request": {
      "method": "PUT",
      "url": "Observation/e9db40b50e0855c5706ac3434b17995ae34474f4506e8789d7937df8f25a8f00"
    }
  }, {
    "fullUrl": "Observation/3f871acb564cc3e785d1fdc5c39867fe9de2caf96feb535a0d0ea235b0ba7bc0",
    "resource": {
      "resourceType": "Observation",
      "id": "3f871acb564cc3e785d1fdc5c39867fe9de2caf96feb535a0d0ea235b0ba7bc0",
      "identifier": [ {
        "system": "https://bzkf.github.io/obds-to-fhir/identifiers/gleason-score-observation-id",
        "value": "gleason-score-DIA_80106"
      } ],
      "status": "final",
      "code": {
        "coding": [ {
          "system": "http://snomed.info/sct",
          "version": "http://snomed.info/sct/900000000000207008/version/20250501",
          "code": "385377005",
          "display": "Gleason grade finding for prostatic cancer (finding)"
        } ]
      },
      "subject": {
        "reference": "Patient/23283daf4d699cc4b3e9d01cd4ce1344cd94f9f9769dfd88da68b2b696332d48"
      },
      "focus": [ {
        "reference": "Condition/e36f967b5391c0aa1a62a6303672b5415efaf3bfdd0b0be02a0739d43ae0b2dc"
      } ],
      "effectiveDateTime": "2020-05-10",
      "valueCodeableConcept": {
        "coding": [ {
          "extension": [ {
            "url": "http://hl7.org/fhir/StructureDefinition/ordinalValue",
            "valueDecimal": 7
          } ],
          "system": "http://snomed.info/sct",
          "version": "http://snomed.info/sct/900000000000207008/version/20250501",
          "code": "57403001"
        } ],
        "text": "7b"
      },
      "method": {
        "coding": [ {
          "system": "http://snomed.info/sct",
          "version": "http://snomed.info/sct/900000000000207008/version/20250501",
          "code": "86273004",
          "display": "Biopsy (procedure)"
        } ]
      },
      "component": [ {
        "code": {
          "coding": [ {
            "system": "http://snomed.info/sct",
            "version": "http://snomed.info/sct/900000000000207008/version/20250501",
            "code": "384994009",
            "display": "Primary Gleason pattern"
          } ]
        },
        "valueInteger": 4
      }, {
        "code": {
          "coding": [ {
            "system": "http://snomed.info/sct",
            "version": "http://snomed.info/sct/900000000000207008/version/20250501",
            "code": "384995005",
            "display": "Secondary Gleason pattern"
          } ]
        },
        "valueInteger": 3
      } ]
    },
    "request": {
      "method": "PUT",
      "url": "Observation/3f871acb564cc3e785d1fdc5c39867fe9de2caf96feb535a0d0ea235b0ba7bc0"
    }
  }, {
    "fullUrl": "List/99fb24f238619107b2e1605fd6904aec3efe377942af57c5261068556b666e92",
    "resource": {
      "resourceType": "List",
      "id": "99fb24f238619107b2e1605fd6904aec3efe377942af57c5261068556b666e92",
      "meta": {
        "profile": [ "https://www.medizininformatik-initiative.de/fhir/ext/modul-onko/StructureDefinition/mii-pr-onko-liste-evidenz-erstdiagnose" ]
      },
      "identifier": [ {
        "system": "https://bzkf.github.io/obds-to-fhir/identifiers/erstdiagnose-evidenz-list-id",
        "value": "80-801"
      } ],
      "status": "current",
      "mode": "snapshot",
      "subject": {
        "reference": "Patient/23283daf4d699cc4b3e9d01cd4ce1344cd94f9f9769dfd88da68b2b696332d48"
      },
      "entry": [ {
        "item": {
          "reference": "Observation/33ffb713694408e707d2cdcc4ce660a637c11a9470ca973e8a62f4354d950d9c"
        }
      }, {
        "item": {
          "reference": "Specimen/f6c1695af05f9b43c6e3cb2b5ff6c444873b8ef0d04d7f1836938d04755d1c96"
        }
      }, {
        "item": {
          "reference": "Observation/c5973b2674e2efe25549a9aad0e5e63ac5a1aad18057623dc9670d24c2c5421d"
        }
      }, {
        "item": {
          "reference": "Observation/591fb5c2579a47881201616aa0da7a0c9de690822165811c4c8411e882d2de86"
        }
      }, {
        "item": {
          "reference": "Observation/db48621a1515b851640e19fc1e05b3ffa67c65792f97d2c4d74f256f467bae39"
        }
      }, {
        "item": {
          "reference": "Observation/05449fc49ef31442263e96544b76404f384e5fab5616d8fe9a9370defaeb240c"
        }
      }, {
        "item": {
          "reference": "Observation/e9db40b50e0855c5706ac3434b17995ae34474f4506e8789d7937df8f25a8f00"
        }
      }, {
        "item": {
          "reference": "Observation/3f871acb564cc3e785d1fdc5c39867fe9de2caf96feb535a0d0ea235b0ba7bc0"
        }
      } ]
    },
    "request": {
      "method": "PUT",
      "url": "List/99fb24f238619107b2e1605fd6904aec3efe377942af57c5261068556b666e92"
    }
  } ]
}