{
  "resourceType": "Bundle",
  "id": "43d8d22e39e073fbb83f221071d60fe92e947d234ada77f7401d0eb4d230a849",
  "type": "transaction",
  "entry": [ {
    "fullUrl": "Patient/43d8d22e39e073fbb83f221071d60fe92e947d234ada77f7401d0eb4d230a849",
    "resource": {
      "resourceType": "Patient",
      "id": "43d8d22e39e073fbb83f221071d60fe92e947d234ada77f7401d0eb4d230a849",
      "meta": {
        "profile": [ "https://www.medizininformatik-initiative.de/fhir/core/modul-person/StructureDefinition/PatientPseudonymisiert" ]
      },
      "identifier": [ {
        "type": {
          "coding": [ {
            "system": "http://terminology.hl7.org/CodeSystem/v2-0203",
            "code": "MR",
            "display": "Medical record number"
          }, {
            "system": "http://terminology.hl7.org/CodeSystem/v3-ObservationValue",
            "code": "PSEUDED",
            "display": "pseudonymized"
          } ]
        },
        "system": "https://bzkf.github.io/obds-to-fhir/identifiers/patient-id",
        "value": "19"
      } ],
      "gender": "female",
      "birthDate": "1950-05-01",
      "address": [ {
        "type": "both",
        "postalCode": "12345",
        "country": "DE"
      } ]
    },
    "request": {
      "method": "PUT",
      "url": "Patient/43d8d22e39e073fbb83f221071d60fe92e947d234ada77f7401d0eb4d230a849"
    }
  }, {
    "fullUrl": "Condition/60c7c9e7ec920151bab3675602c2c7653c354b96d9b5bcdda96151fc7d6dca06",
    "resource": {
      "resourceType": "Condition",
      "id": "60c7c9e7ec920151bab3675602c2c7653c354b96d9b5bcdda96151fc7d6dca06",
      "meta": {
        "profile": [ "https://www.medizininformatik-initiative.de/fhir/ext/modul-onko/StructureDefinition/mii-pr-onko-diagnose-primaertumor" ]
      },
      "extension": [ {
        "url": "https://www.medizininformatik-initiative.de/fhir/ext/modul-onko/StructureDefinition/mii-ex-onko-histology-morphology-behavior-icdo3",
        "valueCodeableConcept": {
          "coding": [ {
            "system": "http://terminology.hl7.org/CodeSystem/icd-o-3",
            "version": "33",
            "code": "8077/2"
          } ],
          "text": "Zervikale intraepitheliale Neoplasie Grad 3"
        }
      }, {
        "url": "http://hl7.org/fhir/StructureDefinition/condition-assertedDate",
        "valueDateTime": "2022-10-02"
      } ],
      "identifier": [ {
        "system": "https://bzkf.github.io/obds-to-fhir/identifiers/primaerdiagnose-condition-id",
        "value": "19-195"
      } ],
      "verificationStatus": {
        "coding": [ {
          "system": "http://terminology.hl7.org/CodeSystem/condition-ver-status",
          "code": "confirmed"
        }, {
          "system": "https://www.medizininformatik-initiative.de/fhir/ext/modul-onko/CodeSystem/mii-cs-onko-primaertumor-diagnosesicherung",
          "code": "5"
        } ]
      },
      "code": {
        "coding": [ {
          "system": "http://fhir.de/CodeSystem/bfarm/icd-10-gm",
          "version": "2022",
          "code": "D06.9"
        } ]
      },
      "bodySite": [ {
        "coding": [ {
          "system": "http://terminology.hl7.org/CodeSystem/icd-o-3",
          "version": "33",
          "code": "C53.9"
        } ],
        "text": "Cervix uteri"
      }, {
        "coding": [ {
          "system": "https://www.medizininformatik-initiative.de/fhir/ext/modul-onko/CodeSystem/mii-cs-onko-seitenlokalisation",
          "code": "T"
        }, {
          "system": "http://snomed.info/sct",
          "version": "http://snomed.info/sct/900000000000207008/version/20250501",
          "code": "385432009",
          "display": "Not applicable (qualifier value)"
        } ]
      } ],
      "subject": {
        "reference": "Patient/43d8d22e39e073fbb83f221071d60fe92e947d234ada77f7401d0eb4d230a849"
      },
      "recordedDate": "2024-04-22",
      "evidence": [ {
        "detail": [ {
          "reference": "List/d1c7f88bae7347ce3687489f726bb619b240436ae19c7c5189a8d57de8b4c5c8"
        } ]
      } ]
    },
    "request": {
      "method": "PUT",
      "url": "Condition/60c7c9e7ec920151bab3675602c2c7653c354b96d9b5bcdda96151fc7d6dca06"
    }
  }, {
    "fullUrl": "Procedure/96cc691987174cc9176cee9837860076876b327ec5eab756f6f8e4e3d2e15fdd",
    "resource": {
      "resourceType": "Procedure",
      "id": "96cc691987174cc9176cee9837860076876b327ec5eab756f6f8e4e3d2e15fdd",
      "meta": {
        "profile": [ "https://www.medizininformatik-initiative.de/fhir/ext/modul-onko/StructureDefinition/mii-pr-onko-operation" ]
      },
      "extension": [ {
        "url": "https://www.medizininformatik-initiative.de/fhir/ext/modul-onko/StructureDefinition/mii-ex-onko-operation-intention",
        "valueCodeableConcept": {
          "coding": [ {
            "system": "https://www.medizininformatik-initiative.de/fhir/ext/modul-onko/CodeSystem/mii-cs-onko-intention",
            "code": "K"
          } ]
        }
      } ],
      "identifier": [ {
        "system": "https://bzkf.github.io/obds-to-fhir/identifiers/operation-procedure-id",
        "value": "29-5-671-01"
      } ],
      "status": "completed",
      "category": {
        "coding": [ {
          "system": "http://snomed.info/sct",
          "version": "http://snomed.info/sct/900000000000207008/version/20250501",
          "code": "387713003",
          "display": "Surgical procedure"
        } ]
      },
      "code": {
        "coding": [ {
          "system": "http://fhir.de/CodeSystem/bfarm/ops",
          "version": "2022",
          "code": "5-671.01"
        } ]
      },
      "subject": {
        "reference": "Patient/43d8d22e39e073fbb83f221071d60fe92e947d234ada77f7401d0eb4d230a849"
      },
      "performedDateTime": "2022-10-16",
      "reasonReference": [ {
        "reference": "Condition/60c7c9e7ec920151bab3675602c2c7653c354b96d9b5bcdda96151fc7d6dca06"
      } ],
      "outcome": {
        "coding": [ {
          "system": "https://www.medizininformatik-initiative.de/fhir/ext/modul-onko/CodeSystem/mii-cs-onko-residualstatus",
          "code": "R0"
        } ]
      }
    },
    "request": {
      "method": "PUT",
      "url": "Procedure/96cc691987174cc9176cee9837860076876b327ec5eab756f6f8e4e3d2e15fdd"
    }
  }, {
    "fullUrl": "Observation/4039fb1c7eb636f48eb37893b683752a6f41e7e05dffc8b12bb3fe8a336d5008",
    "resource": {
      "resourceType": "Observation",
      "id": "4039fb1c7eb636f48eb37893b683752a6f41e7e05dffc8b12bb3fe8a336d5008",
      "identifier": [ {
        "system": "https://bzkf.github.io/obds-to-fhir/identifiers/residualstatus-observation-id",
        "value": "29"
      } ],
      "status": "final",
      "code": {
        "coding": [ {
          "system": "http://loinc.org",
          "version": "2.80",
          "code": "84892-9",
          "display": "Residual tumor classification [Type] in Cancer specimen"
        } ]
      },
      "subject": {
        "reference": "Patient/43d8d22e39e073fbb83f221071d60fe92e947d234ada77f7401d0eb4d230a849"
      },
      "focus": [ {
        "reference": "Condition/60c7c9e7ec920151bab3675602c2c7653c354b96d9b5bcdda96151fc7d6dca06"
      } ],
      "effectiveDateTime": "2022-10-16",
      "valueCodeableConcept": {
        "coding": [ {
          "system": "https://www.medizininformatik-initiative.de/fhir/ext/modul-onko/CodeSystem/mii-cs-onko-residualstatus",
          "code": "R0"
        } ]
      }
    },
    "request": {
      "method": "PUT",
      "url": "Observation/4039fb1c7eb636f48eb37893b683752a6f41e7e05dffc8b12bb3fe8a336d5008"
    }
  }, {
    "fullUrl": "Specimen/ce61305b9676650bf63e434b8504ca3851677155a6d471328210b35d4e1637c7",
    "resource": {
      "resourceType": "Specimen",
      "id": "ce61305b9676650bf63e434b8504ca3851677155a6d471328210b35d4e1637c7",
      "meta": {
        "profile": [ "https://www.medizininformatik-initiative.de/fhir/ext/modul-onko/StructureDefinition/mii-pr-onko-specimen" ]
      },
      "identifier": [ {
        "system": "https://bzkf.github.io/obds-to-fhir/identifiers/histologie-specimen-id",
        "value": "54"
      } ],
      "accessionIdentifier": {
        "value": "X/98765/2"
      },
      "subject": {
        "reference": "Patient/43d8d22e39e073fbb83f221071d60fe92e947d234ada77f7401d0eb4d230a849"
      },
      "collection": {
        "collectedDateTime": "2022-10-16"
      }
    },
    "request": {
      "method": "PUT",
      "url": "Specimen/ce61305b9676650bf63e434b8504ca3851677155a6d471328210b35d4e1637c7"
    }
  }, {
    "fullUrl": "Observation/1abd87a18bca5717b511aad44bef3f0569480a8de7d47a0600e200e8fc59c14f",
    "resource": {
      "resourceType": "Observation",
      "id": "1abd87a18bca5717b511aad44bef3f0569480a8de7d47a0600e200e8fc59c14f",
      "meta": {
        "profile": [ "https://www.medizininformatik-initiative.de/fhir/ext/modul-onko/StructureDefinition/mii-pr-onko-histologie-icdo3" ]
      },
      "identifier": [ {
        "system": "https://bzkf.github.io/obds-to-fhir/identifiers/verlaufshistologie-observation-id",
        "value": "54-ICDO3-8077-2"
      } ],
      "status": "final",
      "code": {
        "coding": [ {
          "system": "http://loinc.org",
          "version": "2.80",
          "code": "59847-4",
          "display": "Histology and Behavior ICD-O-3 Cancer"
        } ]
      },
      "subject": {
        "reference": "Patient/43d8d22e39e073fbb83f221071d60fe92e947d234ada77f7401d0eb4d230a849"
      },
      "focus": [ {
        "reference": "Condition/60c7c9e7ec920151bab3675602c2c7653c354b96d9b5bcdda96151fc7d6dca06"
      } ],
      "effectiveDateTime": "2022-10-16",
      "valueCodeableConcept": {
        "coding": [ {
          "system": "http://terminology.hl7.org/CodeSystem/icd-o-3",
          "version": "33",
          "code": "8077/2"
        } ],
        "text": "Zervikale intraepitheliale Neoplasie Grad 3"
      },
      "specimen": {
        "reference": "Specimen/ce61305b9676650bf63e434b8504ca3851677155a6d471328210b35d4e1637c7"
      }
    },
    "request": {
      "method": "PUT",
      "url": "Observation/1abd87a18bca5717b511aad44bef3f0569480a8de7d47a0600e200e8fc59c14f"
    }
  }, {
    "fullUrl": "Observation/0c3247797f283c23fed499dffafc570fbdb6787d732ce735fc6aeb18ed8ab3b8",
    "resource": {
      "resourceType": "Observation",
      "id": "0c3247797f283c23fed499dffafc570fbdb6787d732ce735fc6aeb18ed8ab3b8",
      "meta": {
        "profile": [ "https://www.medizininformatik-initiative.de/fhir/ext/modul-onko/StructureDefinition/mii-pr-onko-grading" ]
      },
      "identifier": [ {
        "system": "https://bzkf.github.io/obds-to-fhir/identifiers/grading-observation-id",
        "value": "54-grading"
      } ],
      "status": "final",
      "category": [ {
        "coding": [ {
          "system": "http://terminology.hl7.org/CodeSystem/observation-category",
          "code": "laboratory"
        } ]
      } ],
      "code": {
        "coding": [ {
          "system": "http://loinc.org",
          "version": "2.80",
          "code": "33732-9",
          "display": "Histology grade [Identifier] in Cancer specimen"
        }, {
          "system": "http://snomed.info/sct",
          "version": "http://snomed.info/sct/900000000000207008/version/20250501",
          "code": "371469007",
          "display": "Histologic grade of neoplasm (observable entity)"
        } ]
      },
      "subject": {
        "reference": "Patient/43d8d22e39e073fbb83f221071d60fe92e947d234ada77f7401d0eb4d230a849"
      },
      "focus": [ {
        "reference": "Condition/60c7c9e7ec920151bab3675602c2c7653c354b96d9b5bcdda96151fc7d6dca06"
      } ],
      "effectiveDateTime": "2022-10-16",
      "valueCodeableConcept": {
        "coding": [ {
          "system": "https://www.medizininformatik-initiative.de/fhir/ext/modul-onko/CodeSystem/mii-cs-onko-grading",
          "code": "3"
        } ]
      },
      "specimen": {
        "reference": "Specimen/ce61305b9676650bf63e434b8504ca3851677155a6d471328210b35d4e1637c7"
      }
    },
    "request": {
      "method": "PUT",
      "url": "Observation/0c3247797f283c23fed499dffafc570fbdb6787d732ce735fc6aeb18ed8ab3b8"
    }
  }, {
    "fullUrl": "Observation/d79a7b68bf458c0167cad5c173572b078877d7f0e34c333fe24ad287ab16095e",
    "resource": {
      "resourceType": "Observation",
      "id": "d79a7b68bf458c0167cad5c173572b078877d7f0e34c333fe24ad287ab16095e",
      "meta": {
        "profile": [ "https://www.medizininformatik-initiative.de/fhir/ext/modul-onko/StructureDefinition/mii-pr-onko-tnm-t-kategorie" ]
      },
      "identifier": [ {
        "system": "https://bzkf.github.io/obds-to-fhir/identifiers/tnm-t-kategorie-observation-id",
        "value": "49-T"
      } ],
      "status": "final",
      "code": {
        "extension": [ {
          "url": "https://www.medizininformatik-initiative.de/fhir/ext/modul-onko/StructureDefinition/mii-ex-onko-tnm-cp-praefix",
          "valueCodeableConcept": {
            "coding": [ {
              "system": "https://www.uicc.org/resources/tnm",
              "code": "p"
            } ]
          }
        } ],
        "coding": [ {
          "system": "http://snomed.info/sct",
          "version": "http://snomed.info/sct/900000000000207008/version/20250501",
          "code": "384625004",
          "display": "pT category (observable entity)"
        } ]
      },
      "subject": {
        "reference": "Patient/43d8d22e39e073fbb83f221071d60fe92e947d234ada77f7401d0eb4d230a849"
      },
      "focus": [ {
        "reference": "Condition/60c7c9e7ec920151bab3675602c2c7653c354b96d9b5bcdda96151fc7d6dca06"
      } ],
      "effectiveDateTime": "2022-10-16",
      "valueCodeableConcept": {
        "coding": [ {
          "system": "https://www.uicc.org/resources/tnm",
          "code": "Tis"
        } ]
      },
      "method": {
        "coding": [ {
          "system": "https://www.medizininformatik-initiative.de/fhir/ext/modul-onko/CodeSystem/mii-cs-onko-tnm-version",
          "code": "8"
        } ]
      }
    },
    "request": {
      "method": "PUT",
      "url": "Observation/d79a7b68bf458c0167cad5c173572b078877d7f0e34c333fe24ad287ab16095e"
    }
  }, {
    "fullUrl": "Observation/c77f4341767d48873aad119527c2496cfe5ce208358282670d688347aaa8edc7",
    "resource": {
      "resourceType": "Observation",
      "id": "c77f4341767d48873aad119527c2496cfe5ce208358282670d688347aaa8edc7",
      "meta": {
        "profile": [ "https://www.medizininformatik-initiative.de/fhir/ext/modul-onko/StructureDefinition/mii-pr-onko-tnm-klassifikation" ]
      },
      "identifier": [ {
        "system": "https://bzkf.github.io/obds-to-fhir/identifiers/tnm-grouping-observation-id",
        "value": "49"
      } ],
      "status": "final",
      "code": {
        "coding": [ {
          "system": "http://snomed.info/sct",
          "version": "http://snomed.info/sct/900000000000207008/version/20250501",
          "code": "399390009",
          "display": "TNM stage grouping"
        } ]
      },
      "subject": {
        "reference": "Patient/43d8d22e39e073fbb83f221071d60fe92e947d234ada77f7401d0eb4d230a849"
      },
      "focus": [ {
        "reference": "Condition/60c7c9e7ec920151bab3675602c2c7653c354b96d9b5bcdda96151fc7d6dca06"
      } ],
      "effectiveDateTime": "2022-10-16",
      "valueCodeableConcept": {
        "coding": [ {
          "system": "https://www.uicc.org/resources/tnm",
          "code": "0",
          "display": "Stadium 0"
        } ]
      },
      "method": {
        "coding": [ {
          "system": "https://www.medizininformatik-initiative.de/fhir/ext/modul-onko/CodeSystem/mii-cs-onko-tnm-version",
          "code": "8"
        } ]
      },
      "hasMember": [ {
        "reference": "Observation/d79a7b68bf458c0167cad5c173572b078877d7f0e34c333fe24ad287ab16095e"
      } ]
    },
    "request": {
      "method": "PUT",
      "url": "Observation/c77f4341767d48873aad119527c2496cfe5ce208358282670d688347aaa8edc7"
    }
  }, {
    "fullUrl": "Condition/2c354fb45e5691c7a6f7e33efdac34a8f29d80c93fc21339191d8fdf7b53b17e",
    "resource": {
      "resourceType": "Condition",
      "id": "2c354fb45e5691c7a6f7e33efdac34a8f29d80c93fc21339191d8fdf7b53b17e",
      "extension": [ {
        "url": "http://hl7.org/fhir/StructureDefinition/condition-related",
        "valueReference": {
          "reference": "Condition/60c7c9e7ec920151bab3675602c2c7653c354b96d9b5bcdda96151fc7d6dca06"
        }
      }, {
        "url": "http://hl7.org/fhir/StructureDefinition/condition-assertedDate",
        "valueDateTime": "2013"
      } ],
      "identifier": [ {
        "system": "https://bzkf.github.io/obds-to-fhir/identifiers/fruehere-tumorerkrankung-condition-id",
        "value": "19-195-C50-9-2013"
      } ],
      "code": {
        "coding": [ {
          "system": "http://fhir.de/CodeSystem/bfarm/icd-10-gm",
          "version": "2013",
          "code": "C50.9"
        } ],
        "text": "Mamma-Ca, links"
      },
      "subject": {
        "reference": "Patient/43d8d22e39e073fbb83f221071d60fe92e947d234ada77f7401d0eb4d230a849"
      },
      "recordedDate": "2024-04-22"
    },
    "request": {
      "method": "PUT",
      "url": "Condition/2c354fb45e5691c7a6f7e33efdac34a8f29d80c93fc21339191d8fdf7b53b17e"
    }
  }, {
    "fullUrl": "Observation/ee9229bfb55adfac28d31404e6774949fe5f9e3e9f3a3a7c6c0e987a1e192d62",
    "resource": {
      "resourceType": "Observation",
      "id": "ee9229bfb55adfac28d31404e6774949fe5f9e3e9f3a3a7c6c0e987a1e192d62",
      "meta": {
        "profile": [ "https://www.medizininformatik-initiative.de/fhir/ext/modul-onko/StructureDefinition/mii-pr-onko-allgemeiner-leistungszustand-ecog" ]
      },
      "identifier": [ {
        "system": "https://bzkf.github.io/obds-to-fhir/identifiers/allgemeiner-leistungszustand-ecog-id",
        "value": "ECOG-10_5_DI_1"
      } ],
      "status": "final",
      "code": {
        "coding": [ {
          "system": "http://snomed.info/sct",
          "version": "http://snomed.info/sct/900000000000207008/version/20250501",
          "code": "423740007",
          "display": "Eastern Cooperative Oncology Group performance status (observable entity)"
        } ]
      },
      "subject": {
        "reference": "Patient/43d8d22e39e073fbb83f221071d60fe92e947d234ada77f7401d0eb4d230a849"
      },
      "focus": [ {
        "reference": "Condition/60c7c9e7ec920151bab3675602c2c7653c354b96d9b5bcdda96151fc7d6dca06"
      } ],
      "effectiveDateTime": "2022-10-02",
      "valueCodeableConcept": {
        "coding": [ {
          "system": "https://www.medizininformatik-initiative.de/fhir/ext/modul-onko/CodeSystem/mii-cs-onko-allgemeiner-leistungszustand-ecog",
          "code": "0",
          "display": "Normale, uneingeschränkte Aktivität wie vor der Erkrankung (90 - 100 % nach Karnofsky)"
        } ]
      }
    },
    "request": {
      "method": "PUT",
      "url": "Observation/ee9229bfb55adfac28d31404e6774949fe5f9e3e9f3a3a7c6c0e987a1e192d62"
    }
  }, {
    "fullUrl": "Specimen/b84f470206bc2bced7ec56e0896b2a16bf99abe9141247003b41cbb658a132ef",
    "resource": {
      "resourceType": "Specimen",
      "id": "b84f470206bc2bced7ec56e0896b2a16bf99abe9141247003b41cbb658a132ef",
      "meta": {
        "profile": [ "https://www.medizininformatik-initiative.de/fhir/ext/modul-onko/StructureDefinition/mii-pr-onko-specimen" ]
      },
      "identifier": [ {
        "system": "https://bzkf.github.io/obds-to-fhir/identifiers/histologie-specimen-id",
        "value": "53"
      } ],
      "accessionIdentifier": {
        "value": "X/98765/1"
      },
      "subject": {
        "reference": "Patient/43d8d22e39e073fbb83f221071d60fe92e947d234ada77f7401d0eb4d230a849"
      },
      "collection": {
        "collectedDateTime": "2022-10-03"
      }
    },
    "request": {
      "method": "PUT",
      "url": "Specimen/b84f470206bc2bced7ec56e0896b2a16bf99abe9141247003b41cbb658a132ef"
    }
  }, {
    "fullUrl": "Observation/e635685c1dd8eccfb98195fbf658b3880e72664d04be47cedf02aa55d311a7d2",
    "resource": {
      "resourceType": "Observation",
      "id": "e635685c1dd8eccfb98195fbf658b3880e72664d04be47cedf02aa55d311a7d2",
      "meta": {
        "profile": [ "https://www.medizininformatik-initiative.de/fhir/ext/modul-onko/StructureDefinition/mii-pr-onko-grading" ]
      },
      "identifier": [ {
        "system": "https://bzkf.github.io/obds-to-fhir/identifiers/grading-observation-id",
        "value": "53-grading"
      } ],
      "status": "final",
      "category": [ {
        "coding": [ {
          "system": "http://terminology.hl7.org/CodeSystem/observation-category",
          "code": "laboratory"
        } ]
      } ],
      "code": {
        "coding": [ {
          "system": "http://loinc.org",
          "version": "2.80",
          "code": "33732-9",
          "display": "Histology grade [Identifier] in Cancer specimen"
        }, {
          "system": "http://snomed.info/sct",
          "version": "http://snomed.info/sct/900000000000207008/version/20250501",
          "code": "371469007",
          "display": "Histologic grade of neoplasm (observable entity)"
        } ]
      },
      "subject": {
        "reference": "Patient/43d8d22e39e073fbb83f221071d60fe92e947d234ada77f7401d0eb4d230a849"
      },
      "focus": [ {
        "reference": "Condition/60c7c9e7ec920151bab3675602c2c7653c354b96d9b5bcdda96151fc7d6dca06"
      } ],
      "effectiveDateTime": "2022-10-03",
      "valueCodeableConcept": {
        "coding": [ {
          "system": "https://www.medizininformatik-initiative.de/fhir/ext/modul-onko/CodeSystem/mii-cs-onko-grading",
          "code": "3"
        } ]
      },
      "specimen": {
        "reference": "Specimen/b84f470206bc2bced7ec56e0896b2a16bf99abe9141247003b41cbb658a132ef"
      }
    },
    "request": {
      "method": "PUT",
      "url": "Observation/e635685c1dd8eccfb98195fbf658b3880e72664d04be47cedf02aa55d311a7d2"
    }
  }, {
    "fullUrl": "Observation/a4f48c0d03fd5a64e824a2212358ffd1c5ce291d1ae5b32acc0006e86fe6c701",
    "resource": {
      "resourceType": "Observation",
      "id": "a4f48c0d03fd5a64e824a2212358ffd1c5ce291d1ae5b32acc0006e86fe6c701",
      "meta": {
        "profile": [ "https://www.medizininformatik-initiative.de/fhir/ext/modul-onko/StructureDefinition/mii-pr-onko-studienteilnahme" ]
      },
      "identifier": [ {
        "system": "https://bzkf.github.io/obds-to-fhir/identifiers/studienteilnahme-observation-id",
        "value": "10_5_DI_1-Studienteilnahme"
      } ],
      "status": "final",
      "code": {
        "coding": [ {
          "system": "http://snomed.info/sct",
          "version": "http://snomed.info/sct/900000000000207008/version/20250501",
          "code": "709491003",
          "display": "Enrollment in clinical trial (procedure)"
        } ]
      },
      "subject": {
        "reference": "Patient/43d8d22e39e073fbb83f221071d60fe92e947d234ada77f7401d0eb4d230a849"
      },
      "focus": [ {
        "reference": "Condition/60c7c9e7ec920151bab3675602c2c7653c354b96d9b5bcdda96151fc7d6dca06"
      } ],
      "valueCodeableConcept": {
        "coding": [ {
          "system": "https://www.medizininformatik-initiative.de/fhir/ext/modul-onko/CodeSystem/mii-cs-onko-studienteilnahme",
          "code": "N"
        } ]
      }
    },
    "request": {
      "method": "PUT",
      "url": "Observation/a4f48c0d03fd5a64e824a2212358ffd1c5ce291d1ae5b32acc0006e86fe6c701"
    }
  }, {
    "fullUrl": "Observation/6d7b06463726948fb1eb187f9846500ea3ac180d0c492ed65f10e46a908431f5",
    "resource": {
      "resourceType": "Observation",
      "id": "6d7b06463726948fb1eb187f9846500ea3ac180d0c492ed65f10e46a908431f5",
      "meta": {
        "profile": [ "https://www.medizininformatik-initiative.de/fhir/ext/modul-onko/StructureDefinition/mii-pr-onko-tnm-t-kategorie" ]
      },
      "identifier": [ {
        "system": "https://bzkf.github.io/obds-to-fhir/identifiers/tnm-t-kategorie-observation-id",
        "value": "47-c-T"
      } ],
      "status": "final",
      "code": {
        "extension": [ {
          "url": "https://www.medizininformatik-initiative.de/fhir/ext/modul-onko/StructureDefinition/mii-ex-onko-tnm-cp-praefix",
          "valueCodeableConcept": {
            "coding": [ {
              "system": "https://www.uicc.org/resources/tnm",
              "code": "c"
            } ]
          }
        } ],
        "coding": [ {
          "system": "http://snomed.info/sct",
          "version": "http://snomed.info/sct/900000000000207008/version/20250501",
          "code": "399504009",
          "display": "cT category (observable entity)"
        } ]
      },
      "subject": {
        "reference": "Patient/43d8d22e39e073fbb83f221071d60fe92e947d234ada77f7401d0eb4d230a849"
      },
      "focus": [ {
        "reference": "Condition/60c7c9e7ec920151bab3675602c2c7653c354b96d9b5bcdda96151fc7d6dca06"
      } ],
      "effectiveDateTime": "2022-10-02",
      "valueCodeableConcept": {
        "coding": [ {
          "system": "https://www.uicc.org/resources/tnm",
          "code": "Tis"
        } ]
      },
      "method": {
        "coding": [ {
          "system": "https://www.medizininformatik-initiative.de/fhir/ext/modul-onko/CodeSystem/mii-cs-onko-tnm-version",
          "code": "8"
        } ]
      }
    },
    "request": {
      "method": "PUT",
      "url": "Observation/6d7b06463726948fb1eb187f9846500ea3ac180d0c492ed65f10e46a908431f5"
    }
  }, {
    "fullUrl": "Observation/bed6250c7d294deb7245a840f29225e468ac63755320f27da2b3807f703c8cbb",
    "resource": {
      "resourceType": "Observation",
      "id": "bed6250c7d294deb7245a840f29225e468ac63755320f27da2b3807f703c8cbb",
      "meta": {
        "profile": [ "https://www.medizininformatik-initiative.de/fhir/ext/modul-onko/StructureDefinition/mii-pr-onko-tnm-n-kategorie" ]
      },
      "identifier": [ {
        "system": "https://bzkf.github.io/obds-to-fhir/identifiers/tnm-n-kategorie-observation-id",
        "value": "47-c-N"
      } ],
      "status": "final",
      "code": {
        "extension": [ {
          "url": "https://www.medizininformatik-initiative.de/fhir/ext/modul-onko/StructureDefinition/mii-ex-onko-tnm-cp-praefix",
          "valueCodeableConcept": {
            "coding": [ {
              "system": "https://www.uicc.org/resources/tnm",
              "code": "c"
            } ]
          }
        } ],
        "coding": [ {
          "system": "http://snomed.info/sct",
          "version": "http://snomed.info/sct/900000000000207008/version/20250501",
          "code": "399534004",
          "display": "cN category (observable entity)"
        } ]
      },
      "subject": {
        "reference": "Patient/43d8d22e39e073fbb83f221071d60fe92e947d234ada77f7401d0eb4d230a849"
      },
      "focus": [ {
        "reference": "Condition/60c7c9e7ec920151bab3675602c2c7653c354b96d9b5bcdda96151fc7d6dca06"
      } ],
      "effectiveDateTime": "2022-10-02",
      "valueCodeableConcept": {
        "coding": [ {
          "system": "https://www.uicc.org/resources/tnm",
          "code": "N0"
        } ]
      },
      "method": {
        "coding": [ {
          "system": "https://www.medizininformatik-initiative.de/fhir/ext/modul-onko/CodeSystem/mii-cs-onko-tnm-version",
          "code": "8"
        } ]
      }
    },
    "request": {
      "method": "PUT",
      "url": "Observation/bed6250c7d294deb7245a840f29225e468ac63755320f27da2b3807f703c8cbb"
    }
  }, {
    "fullUrl": "Observation/5b26379361b8193384eb57cbc44847e4a2248b5611716c3ead11f5fdef815393",
    "resource": {
      "resourceType": "Observation",
      "id": "5b26379361b8193384eb57cbc44847e4a2248b5611716c3ead11f5fdef815393",
      "meta": {
        "profile": [ "https://www.medizininformatik-initiative.de/fhir/ext/modul-onko/StructureDefinition/mii-pr-onko-tnm-m-kategorie" ]
      },
      "identifier": [ {
        "system": "https://bzkf.github.io/obds-to-fhir/identifiers/tnm-m-kategorie-observation-id",
        "value": "47-c-M"
      } ],
      "status": "final",
      "code": {
        "extension": [ {
          "url": "https://www.medizininformatik-initiative.de/fhir/ext/modul-onko/StructureDefinition/mii-ex-onko-tnm-cp-praefix",
          "valueCodeableConcept": {
            "coding": [ {
              "system": "https://www.uicc.org/resources/tnm",
              "code": "c"
            } ]
          }
        } ],
        "coding": [ {
          "system": "http://snomed.info/sct",
          "version": "http://snomed.info/sct/900000000000207008/version/20250501",
          "code": "399387003",
          "display": "cM category (observable entity)"
        } ]
      },
      "subject": {
        "reference": "Patient/43d8d22e39e073fbb83f221071d60fe92e947d234ada77f7401d0eb4d230a849"
      },
      "focus": [ {
        "reference": "Condition/60c7c9e7ec920151bab3675602c2c7653c354b96d9b5bcdda96151fc7d6dca06"
      } ],
      "effectiveDateTime": "2022-10-02",
      "valueCodeableConcept": {
        "coding": [ {
          "system": "https://www.uicc.org/resources/tnm",
          "code": "M0"
        } ]
      },
      "method": {
        "coding": [ {
          "system": "https://www.medizininformatik-initiative.de/fhir/ext/modul-onko/CodeSystem/mii-cs-onko-tnm-version",
          "code": "8"
        } ]
      }
    },
    "request": {
      "method": "PUT",
      "url": "Observation/5b26379361b8193384eb57cbc44847e4a2248b5611716c3ead11f5fdef815393"
    }
  }, {
    "fullUrl": "Observation/c38c194d0b638d00470c51d26348360a7e42d6b35dc0523fad7f378f92a9639a",
    "resource": {
      "resourceType": "Observation",
      "id": "c38c194d0b638d00470c51d26348360a7e42d6b35dc0523fad7f378f92a9639a",
      "meta": {
        "profile": [ "https://www.medizininformatik-initiative.de/fhir/ext/modul-onko/StructureDefinition/mii-pr-onko-tnm-klassifikation" ]
      },
      "identifier": [ {
        "system": "https://bzkf.github.io/obds-to-fhir/identifiers/tnm-grouping-observation-id",
        "value": "47-c"
      } ],
      "status": "final",
      "code": {
        "coding": [ {
          "system": "http://snomed.info/sct",
          "version": "http://snomed.info/sct/900000000000207008/version/20250501",
          "code": "399537006",
          "display": "Clinical TNM stage grouping"
        } ]
      },
      "subject": {
        "reference": "Patient/43d8d22e39e073fbb83f221071d60fe92e947d234ada77f7401d0eb4d230a849"
      },
      "focus": [ {
        "reference": "Condition/60c7c9e7ec920151bab3675602c2c7653c354b96d9b5bcdda96151fc7d6dca06"
      } ],
      "effectiveDateTime": "2022-10-02",
      "valueCodeableConcept": {
        "coding": [ {
          "system": "https://www.uicc.org/resources/tnm",
          "code": "0",
          "display": "Stadium 0"
        } ]
      },
      "method": {
        "coding": [ {
          "system": "https://www.medizininformatik-initiative.de/fhir/ext/modul-onko/CodeSystem/mii-cs-onko-tnm-version",
          "code": "8"
        } ]
      },
      "hasMember": [ {
        "reference": "Observation/6d7b06463726948fb1eb187f9846500ea3ac180d0c492ed65f10e46a908431f5"
      }, {
        "reference": "Observation/bed6250c7d294deb7245a840f29225e468ac63755320f27da2b3807f703c8cbb"
      }, {
        "reference": "Observation/5b26379361b8193384eb57cbc44847e4a2248b5611716c3ead11f5fdef815393"
      } ]
    },
    "request": {
      "method": "PUT",
      "url": "Observation/c38c194d0b638d00470c51d26348360a7e42d6b35dc0523fad7f378f92a9639a"
    }
  }, {
    "fullUrl": "Observation/d684f7abdc9379d5691c78df1f94f49dc55b749d38ededec40ba5a0cdccf097e",
    "resource": {
      "resourceType": "Observation",
      "id": "d684f7abdc9379d5691c78df1f94f49dc55b749d38ededec40ba5a0cdccf097e",
      "meta": {
        "profile": [ "https://www.medizininformatik-initiative.de/fhir/ext/modul-onko/StructureDefinition/mii-pr-onko-tnm-t-kategorie" ]
      },
      "identifier": [ {
        "system": "https://bzkf.github.io/obds-to-fhir/identifiers/tnm-t-kategorie-observation-id",
        "value": "48-p-T"
      } ],
      "status": "final",
      "code": {
        "extension": [ {
          "url": "https://www.medizininformatik-initiative.de/fhir/ext/modul-onko/StructureDefinition/mii-ex-onko-tnm-cp-praefix",
          "valueCodeableConcept": {
            "coding": [ {
              "system": "https://www.uicc.org/resources/tnm",
              "code": "p"
            } ]
          }
        } ],
        "coding": [ {
          "system": "http://snomed.info/sct",
          "version": "http://snomed.info/sct/900000000000207008/version/20250501",
          "code": "384625004",
          "display": "pT category (observable entity)"
        } ]
      },
      "subject": {
        "reference": "Patient/43d8d22e39e073fbb83f221071d60fe92e947d234ada77f7401d0eb4d230a849"
      },
      "focus": [ {
        "reference": "Condition/60c7c9e7ec920151bab3675602c2c7653c354b96d9b5bcdda96151fc7d6dca06"
      } ],
      "effectiveDateTime": "2022-10-03",
      "valueCodeableConcept": {
        "coding": [ {
          "system": "https://www.uicc.org/resources/tnm",
          "code": "Tis"
        } ]
      },
      "method": {
        "coding": [ {
          "system": "https://www.medizininformatik-initiative.de/fhir/ext/modul-onko/CodeSystem/mii-cs-onko-tnm-version",
          "code": "8"
        } ]
      }
    },
    "request": {
      "method": "PUT",
      "url": "Observation/d684f7abdc9379d5691c78df1f94f49dc55b749d38ededec40ba5a0cdccf097e"
    }
  }, {
    "fullUrl": "Observation/e182e9a0e83d1279eee8ab48b7d93b2b6ea53a9ee1f7b29b6fc29c188da4c1bc",
    "resource": {
      "resourceType": "Observation",
      "id": "e182e9a0e83d1279eee8ab48b7d93b2b6ea53a9ee1f7b29b6fc29c188da4c1bc",
      "meta": {
        "profile": [ "https://www.medizininformatik-initiative.de/fhir/ext/modul-onko/StructureDefinition/mii-pr-onko-tnm-n-kategorie" ]
      },
      "identifier": [ {
        "system": "https://bzkf.github.io/obds-to-fhir/identifiers/tnm-n-kategorie-observation-id",
        "value": "48-p-N"
      } ],
      "status": "final",
      "code": {
        "extension": [ {
          "url": "https://www.medizininformatik-initiative.de/fhir/ext/modul-onko/StructureDefinition/mii-ex-onko-tnm-cp-praefix",
          "valueCodeableConcept": {
            "coding": [ {
              "system": "https://www.uicc.org/resources/tnm",
              "code": "c"
            } ]
          }
        } ],
        "coding": [ {
          "system": "http://snomed.info/sct",
          "version": "http://snomed.info/sct/900000000000207008/version/20250501",
          "code": "399534004",
          "display": "cN category (observable entity)"
        } ]
      },
      "subject": {
        "reference": "Patient/43d8d22e39e073fbb83f221071d60fe92e947d234ada77f7401d0eb4d230a849"
      },
      "focus": [ {
        "reference": "Condition/60c7c9e7ec920151bab3675602c2c7653c354b96d9b5bcdda96151fc7d6dca06"
      } ],
      "effectiveDateTime": "2022-10-03",
      "valueCodeableConcept": {
        "coding": [ {
          "system": "https://www.uicc.org/resources/tnm",
          "code": "N0"
        } ]
      },
      "method": {
        "coding": [ {
          "system": "https://www.medizininformatik-initiative.de/fhir/ext/modul-onko/CodeSystem/mii-cs-onko-tnm-version",
          "code": "8"
        } ]
      }
    },
    "request": {
      "method": "PUT",
      "url": "Observation/e182e9a0e83d1279eee8ab48b7d93b2b6ea53a9ee1f7b29b6fc29c188da4c1bc"
    }
  }, {
    "fullUrl": "Observation/59e23324dfe626ea52a4ef53ac7aa90a4a784a38e834e2e3315501425cc7f9bc",
    "resource": {
      "resourceType": "Observation",
      "id": "59e23324dfe626ea52a4ef53ac7aa90a4a784a38e834e2e3315501425cc7f9bc",
      "meta": {
        "profile": [ "https://www.medizininformatik-initiative.de/fhir/ext/modul-onko/StructureDefinition/mii-pr-onko-tnm-m-kategorie" ]
      },
      "identifier": [ {
        "system": "https://bzkf.github.io/obds-to-fhir/identifiers/tnm-m-kategorie-observation-id",
        "value": "48-p-M"
      } ],
      "status": "final",
      "code": {
        "extension": [ {
          "url": "https://www.medizininformatik-initiative.de/fhir/ext/modul-onko/StructureDefinition/mii-ex-onko-tnm-cp-praefix",
          "valueCodeableConcept": {
            "coding": [ {
              "system": "https://www.uicc.org/resources/tnm",
              "code": "c"
            } ]
          }
        } ],
        "coding": [ {
          "system": "http://snomed.info/sct",
          "version": "http://snomed.info/sct/900000000000207008/version/20250501",
          "code": "399387003",
          "display": "cM category (observable entity)"
        } ]
      },
      "subject": {
        "reference": "Patient/43d8d22e39e073fbb83f221071d60fe92e947d234ada77f7401d0eb4d230a849"
      },
      "focus": [ {
        "reference": "Condition/60c7c9e7ec920151bab3675602c2c7653c354b96d9b5bcdda96151fc7d6dca06"
      } ],
      "effectiveDateTime": "2022-10-03",
      "valueCodeableConcept": {
        "coding": [ {
          "system": "https://www.uicc.org/resources/tnm",
          "code": "M0"
        } ]
      },
      "method": {
        "coding": [ {
          "system": "https://www.medizininformatik-initiative.de/fhir/ext/modul-onko/CodeSystem/mii-cs-onko-tnm-version",
          "code": "8"
        } ]
      }
    },
    "request": {
      "method": "PUT",
      "url": "Observation/59e23324dfe626ea52a4ef53ac7aa90a4a784a38e834e2e3315501425cc7f9bc"
    }
  }, {
    "fullUrl": "Observation/6c3549429c4757ea9158550e7a97bcf2873eee5baff07ddb603d4de7398e82d2",
    "resource": {
      "resourceType": "Observation",
      "id": "6c3549429c4757ea9158550e7a97bcf2873eee5baff07ddb603d4de7398e82d2",
      "meta": {
        "profile": [ "https://www.medizininformatik-initiative.de/fhir/ext/modul-onko/StructureDefinition/mii-pr-onko-tnm-klassifikation" ]
      },
      "identifier": [ {
        "system": "https://bzkf.github.io/obds-to-fhir/identifiers/tnm-grouping-observation-id",
        "value": "48-p"
      } ],
      "status": "final",
      "code": {
        "coding": [ {
          "system": "http://snomed.info/sct",
          "version": "http://snomed.info/sct/900000000000207008/version/20250501",
          "code": "399588009",
          "display": "Pathologic TNM stage grouping"
        } ]
      },
      "subject": {
        "reference": "Patient/43d8d22e39e073fbb83f221071d60fe92e947d234ada77f7401d0eb4d230a849"
      },
      "focus": [ {
        "reference": "Condition/60c7c9e7ec920151bab3675602c2c7653c354b96d9b5bcdda96151fc7d6dca06"
      } ],
      "effectiveDateTime": "2022-10-03",
      "valueCodeableConcept": {
        "coding": [ {
          "system": "https://www.uicc.org/resources/tnm",
          "code": "0",
          "display": "Stadium 0"
        } ]
      },
      "method": {
        "coding": [ {
          "system": "https://www.medizininformatik-initiative.de/fhir/ext/modul-onko/CodeSystem/mii-cs-onko-tnm-version",
          "code": "8"
        } ]
      },
      "hasMember": [ {
        "reference": "Observation/d684f7abdc9379d5691c78df1f94f49dc55b749d38ededec40ba5a0cdccf097e"
      }, {
        "reference": "Observation/e182e9a0e83d1279eee8ab48b7d93b2b6ea53a9ee1f7b29b6fc29c188da4c1bc"
      }, {
        "reference": "Observation/59e23324dfe626ea52a4ef53ac7aa90a4a784a38e834e2e3315501425cc7f9bc"
      } ]
    },
    "request": {
      "method": "PUT",
      "url": "Observation/6c3549429c4757ea9158550e7a97bcf2873eee5baff07ddb603d4de7398e82d2"
    }
  }, {
    "fullUrl": "List/d1c7f88bae7347ce3687489f726bb619b240436ae19c7c5189a8d57de8b4c5c8",
    "resource": {
      "resourceType": "List",
      "id": "d1c7f88bae7347ce3687489f726bb619b240436ae19c7c5189a8d57de8b4c5c8",
      "meta": {
        "profile": [ "https://www.medizininformatik-initiative.de/fhir/ext/modul-onko/StructureDefinition/mii-pr-onko-liste-evidenz-erstdiagnose" ]
      },
      "identifier": [ {
        "system": "https://bzkf.github.io/obds-to-fhir/identifiers/erstdiagnose-evidenz-list-id",
        "value": "19-195"
      } ],
      "status": "current",
      "mode": "snapshot",
      "subject": {
        "reference": "Patient/43d8d22e39e073fbb83f221071d60fe92e947d234ada77f7401d0eb4d230a849"
      },
      "entry": [ {
        "item": {
          "reference": "Condition/2c354fb45e5691c7a6f7e33efdac34a8f29d80c93fc21339191d8fdf7b53b17e"
        }
      }, {
        "item": {
          "reference": "Observation/ee9229bfb55adfac28d31404e6774949fe5f9e3e9f3a3a7c6c0e987a1e192d62"
        }
      }, {
        "item": {
          "reference": "Specimen/b84f470206bc2bced7ec56e0896b2a16bf99abe9141247003b41cbb658a132ef"
        }
      }, {
        "item": {
          "reference": "Observation/e635685c1dd8eccfb98195fbf658b3880e72664d04be47cedf02aa55d311a7d2"
        }
      }, {
        "item": {
          "reference": "Observation/a4f48c0d03fd5a64e824a2212358ffd1c5ce291d1ae5b32acc0006e86fe6c701"
        }
      }, {
        "item": {
          "reference": "Observation/6d7b06463726948fb1eb187f9846500ea3ac180d0c492ed65f10e46a908431f5"
        }
      }, {
        "item": {
          "reference": "Observation/bed6250c7d294deb7245a840f29225e468ac63755320f27da2b3807f703c8cbb"
        }
      }, {
        "item": {
          "reference": "Observation/5b26379361b8193384eb57cbc44847e4a2248b5611716c3ead11f5fdef815393"
        }
      }, {
        "item": {
          "reference": "Observation/c38c194d0b638d00470c51d26348360a7e42d6b35dc0523fad7f378f92a9639a"
        }
      }, {
        "item": {
          "reference": "Observation/d684f7abdc9379d5691c78df1f94f49dc55b749d38ededec40ba5a0cdccf097e"
        }
      }, {
        "item": {
          "reference": "Observation/e182e9a0e83d1279eee8ab48b7d93b2b6ea53a9ee1f7b29b6fc29c188da4c1bc"
        }
      }, {
        "item": {
          "reference": "Observation/59e23324dfe626ea52a4ef53ac7aa90a4a784a38e834e2e3315501425cc7f9bc"
        }
      }, {
        "item": {
          "reference": "Observation/6c3549429c4757ea9158550e7a97bcf2873eee5baff07ddb603d4de7398e82d2"
        }
      } ]
    },
    "request": {
      "method": "PUT",
      "url": "List/d1c7f88bae7347ce3687489f726bb619b240436ae19c7c5189a8d57de8b4c5c8"
    }
  } ]
}