{
  "resourceType": "Bundle",
  "id": "6d5d660ab62ed4f79df30257578c3a98eda74f14c6499270e0d2c3c92a5c2dfc",
  "type": "transaction",
  "entry": [ {
    "fullUrl": "Patient/6d5d660ab62ed4f79df30257578c3a98eda74f14c6499270e0d2c3c92a5c2dfc",
    "resource": {
      "resourceType": "Patient",
      "id": "6d5d660ab62ed4f79df30257578c3a98eda74f14c6499270e0d2c3c92a5c2dfc",
      "meta": {
        "profile": [ "https://www.medizininformatik-initiative.de/fhir/core/modul-person/StructureDefinition/PatientPseudonymisiert" ]
      },
      "identifier": [ {
        "type": {
          "coding": [ {
            "system": "http://terminology.hl7.org/CodeSystem/v2-0203",
            "code": "MR",
            "display": "Medical record number"
          }, {
            "system": "http://terminology.hl7.org/CodeSystem/v3-ObservationValue",
            "code": "PSEUDED",
            "display": "pseudonymized"
          } ]
        },
        "system": "https://bzkf.github.io/obds-to-fhir/identifiers/patient-id",
        "value": "1055555999"
      } ],
      "gender": "male",
      "birthDate": "1900-09-11",
      "address": [ {
        "type": "both",
        "postalCode": "91000",
        "country": "DE"
      } ]
    },
    "request": {
      "method": "PUT",
      "url": "Patient/6d5d660ab62ed4f79df30257578c3a98eda74f14c6499270e0d2c3c92a5c2dfc"
    }
  }, {
    "fullUrl": "Condition/f4e7ec6d41a51a183a826bd1c83d3e3a8090b8b676ecb54b143cda83a8fcd18a",
    "resource": {
      "resourceType": "Condition",
      "id": "f4e7ec6d41a51a183a826bd1c83d3e3a8090b8b676ecb54b143cda83a8fcd18a",
      "meta": {
        "profile": [ "https://www.medizininformatik-initiative.de/fhir/ext/modul-onko/StructureDefinition/mii-pr-onko-diagnose-primaertumor" ],
        "tag": [ {
          "system": "http://snomed.info/sct",
          "version": "http://snomed.info/sct/900000000000207008/version/20250501",
          "code": "255599008",
          "display": "Incomplete (qualifier value)"
        } ]
      },
      "extension": [ {
        "url": "http://hl7.org/fhir/StructureDefinition/condition-assertedDate",
        "valueDateTime": "2021-05-18"
      } ],
      "identifier": [ {
        "system": "https://bzkf.github.io/obds-to-fhir/identifiers/primaerdiagnose-condition-id",
        "value": "1055555999-1"
      } ],
      "code": {
        "coding": [ {
          "system": "http://fhir.de/CodeSystem/bfarm/icd-10-gm",
          "version": "2021",
          "code": "C72.0"
        } ]
      },
      "bodySite": [ {
        "coding": [ {
          "system": "https://www.medizininformatik-initiative.de/fhir/ext/modul-onko/CodeSystem/mii-cs-onko-seitenlokalisation",
          "code": "R"
        }, {
          "system": "http://snomed.info/sct",
          "version": "http://snomed.info/sct/900000000000207008/version/20250501",
          "code": "24028007",
          "display": "Right (qualifier value)"
        } ]
      } ],
      "subject": {
        "reference": "Patient/6d5d660ab62ed4f79df30257578c3a98eda74f14c6499270e0d2c3c92a5c2dfc"
      },
      "recordedDate": "2021-11-10"
    },
    "request": {
      "method": "PUT",
      "url": "Condition/f4e7ec6d41a51a183a826bd1c83d3e3a8090b8b676ecb54b143cda83a8fcd18a"
    }
  }, {
    "fullUrl": "Procedure/c43a8d5d96caadade444db72b48a3b8f0a1c5e899b0f4796575017e046e92b4e",
    "resource": {
      "resourceType": "Procedure",
      "id": "c43a8d5d96caadade444db72b48a3b8f0a1c5e899b0f4796575017e046e92b4e",
      "meta": {
        "profile": [ "https://www.medizininformatik-initiative.de/fhir/ext/modul-onko/StructureDefinition/mii-pr-onko-strahlentherapie" ]
      },
      "extension": [ {
        "url": "https://www.medizininformatik-initiative.de/fhir/ext/modul-onko/StructureDefinition/mii-ex-onko-strahlentherapie-intention",
        "valueCodeableConcept": {
          "coding": [ {
            "system": "https://www.medizininformatik-initiative.de/fhir/ext/modul-onko/CodeSystem/mii-cs-onko-intention",
            "code": "P"
          } ]
        }
      }, {
        "url": "https://www.medizininformatik-initiative.de/fhir/ext/modul-onko/StructureDefinition/mii-ex-onko-strahlentherapie-stellungzurop",
        "valueCodeableConcept": {
          "coding": [ {
            "system": "https://www.medizininformatik-initiative.de/fhir/ext/modul-onko/CodeSystem/mii-cs-therapie-stellungzurop",
            "code": "N"
          } ]
        }
      } ],
      "identifier": [ {
        "system": "https://bzkf.github.io/obds-to-fhir/identifiers/strahlentherapie-procedure-id",
        "value": "45900"
      } ],
      "status": "completed",
      "category": {
        "coding": [ {
          "system": "http://snomed.info/sct",
          "version": "http://snomed.info/sct/900000000000207008/version/20250501",
          "code": "1287742003",
          "display": "Radiotherapy (procedure)"
        } ]
      },
      "code": {
        "coding": [ {
          "system": "http://fhir.de/CodeSystem/bfarm/ops",
          "version": "2025",
          "code": "8-52",
          "display": "Strahlentherapie"
        } ]
      },
      "subject": {
        "reference": "Patient/6d5d660ab62ed4f79df30257578c3a98eda74f14c6499270e0d2c3c92a5c2dfc"
      },
      "performedPeriod": {
        "_start": {
          "extension": [ {
            "url": "http://hl7.org/fhir/StructureDefinition/data-absent-reason",
            "valueCode": "unknown"
          } ]
        },
        "end": "2021-12-02"
      },
      "reasonReference": [ {
        "reference": "Condition/f4e7ec6d41a51a183a826bd1c83d3e3a8090b8b676ecb54b143cda83a8fcd18a"
      } ],
      "outcome": {
        "coding": [ {
          "system": "https://www.medizininformatik-initiative.de/fhir/ext/modul-onko/CodeSystem/mii-cs-therapie-grund-ende",
          "code": "E"
        } ]
      }
    },
    "request": {
      "method": "PUT",
      "url": "Procedure/c43a8d5d96caadade444db72b48a3b8f0a1c5e899b0f4796575017e046e92b4e"
    }
  }, {
    "fullUrl": "Procedure/0d43e9db1a179fa4447e542d1ffc014278671c2629697d8b52a6752599b66cbd",
    "resource": {
      "resourceType": "Procedure",
      "id": "0d43e9db1a179fa4447e542d1ffc014278671c2629697d8b52a6752599b66cbd",
      "meta": {
        "profile": [ "https://www.medizininformatik-initiative.de/fhir/ext/modul-onko/StructureDefinition/mii-pr-onko-strahlentherapie-bestrahlung-strahlentherapie" ]
      },
      "identifier": [ {
        "system": "https://bzkf.github.io/obds-to-fhir/identifiers/strahlentherapie-bestrahlung-procedure-id",
        "value": "45900-0"
      } ],
      "partOf": [ {
        "reference": "Procedure/c43a8d5d96caadade444db72b48a3b8f0a1c5e899b0f4796575017e046e92b4e"
      } ],
      "status": "in-progress",
      "category": {
        "coding": [ {
          "system": "http://snomed.info/sct",
          "version": "http://snomed.info/sct/900000000000207008/version/20250501",
          "code": "1287742003",
          "display": "Radiotherapy (procedure)"
        } ]
      },
      "code": {
        "coding": [ {
          "system": "http://fhir.de/CodeSystem/bfarm/ops",
          "version": "2025",
          "code": "8-52",
          "display": "Strahlentherapie"
        } ]
      },
      "subject": {
        "reference": "Patient/6d5d660ab62ed4f79df30257578c3a98eda74f14c6499270e0d2c3c92a5c2dfc"
      },
      "performedPeriod": {
        "_start": {
          "extension": [ {
            "url": "http://hl7.org/fhir/StructureDefinition/data-absent-reason",
            "valueCode": "unknown"
          } ]
        }
      },
      "bodySite": [ {
        "extension": [ {
          "url": "https://www.medizininformatik-initiative.de/fhir/ext/modul-onko/StructureDefinition/mii-ex-onko-strahlentherapie-bestrahlung-seitenlokalisation",
          "valueCodeableConcept": {
            "coding": [ {
              "system": "https://www.medizininformatik-initiative.de/fhir/ext/modul-onko/CodeSystem/mii-cs-onko-seitenlokalisation",
              "code": "L"
            } ]
          }
        } ],
        "coding": [ {
          "system": "https://www.medizininformatik-initiative.de/fhir/ext/modul-onko/CodeSystem/mii-cs-onko-strahlentherapie-zielgebiet",
          "code": "5.4.-"
        } ]
      } ],
      "usedCode": [ {
        "coding": [ {
          "system": "https://www.medizininformatik-initiative.de/fhir/ext/modul-onko/CodeSystem/mii-cs-onko-strahlentherapie-applikationsart",
          "code": "K"
        } ]
      } ]
    },
    "request": {
      "method": "PUT",
      "url": "Procedure/0d43e9db1a179fa4447e542d1ffc014278671c2629697d8b52a6752599b66cbd"
    }
  }, {
    "fullUrl": "Procedure/e414911ddb8e103c1728ba7651b6374bb04a239ba8d3cc49af1eaaa81898c058",
    "resource": {
      "resourceType": "Procedure",
      "id": "e414911ddb8e103c1728ba7651b6374bb04a239ba8d3cc49af1eaaa81898c058",
      "meta": {
        "profile": [ "https://www.medizininformatik-initiative.de/fhir/ext/modul-onko/StructureDefinition/mii-pr-onko-strahlentherapie-bestrahlung-strahlentherapie" ]
      },
      "identifier": [ {
        "system": "https://bzkf.github.io/obds-to-fhir/identifiers/strahlentherapie-bestrahlung-procedure-id",
        "value": "45900-1"
      } ],
      "partOf": [ {
        "reference": "Procedure/c43a8d5d96caadade444db72b48a3b8f0a1c5e899b0f4796575017e046e92b4e"
      } ],
      "status": "completed",
      "category": {
        "coding": [ {
          "system": "http://snomed.info/sct",
          "version": "http://snomed.info/sct/900000000000207008/version/20250501",
          "code": "1287742003",
          "display": "Radiotherapy (procedure)"
        } ]
      },
      "code": {
        "coding": [ {
          "system": "http://fhir.de/CodeSystem/bfarm/ops",
          "version": "2025",
          "code": "8-52",
          "display": "Strahlentherapie"
        } ]
      },
      "subject": {
        "reference": "Patient/6d5d660ab62ed4f79df30257578c3a98eda74f14c6499270e0d2c3c92a5c2dfc"
      },
      "performedPeriod": {
        "_start": {
          "extension": [ {
            "url": "http://hl7.org/fhir/StructureDefinition/data-absent-reason",
            "valueCode": "unknown"
          } ]
        },
        "end": "2021-12-02"
      },
      "bodySite": [ {
        "extension": [ {
          "url": "https://www.medizininformatik-initiative.de/fhir/ext/modul-onko/StructureDefinition/mii-ex-onko-strahlentherapie-bestrahlung-seitenlokalisation",
          "valueCodeableConcept": {
            "coding": [ {
              "system": "https://www.medizininformatik-initiative.de/fhir/ext/modul-onko/CodeSystem/mii-cs-onko-seitenlokalisation",
              "code": "R"
            } ]
          }
        } ],
        "coding": [ {
          "system": "https://www.medizininformatik-initiative.de/fhir/ext/modul-onko/CodeSystem/mii-cs-onko-strahlentherapie-zielgebiet",
          "code": "1.2."
        } ]
      } ],
      "usedCode": [ {
        "coding": [ {
          "system": "https://www.medizininformatik-initiative.de/fhir/ext/modul-onko/CodeSystem/mii-cs-onko-strahlentherapie-applikationsart",
          "code": "P"
        } ]
      } ]
    },
    "request": {
      "method": "PUT",
      "url": "Procedure/e414911ddb8e103c1728ba7651b6374bb04a239ba8d3cc49af1eaaa81898c058"
    }
  }, {
    "fullUrl": "Procedure/9a20a96a1096bcaf9af294b01e5c308b0bcaec60a12bd45e3a7cfebb20d7f351",
    "resource": {
      "resourceType": "Procedure",
      "id": "9a20a96a1096bcaf9af294b01e5c308b0bcaec60a12bd45e3a7cfebb20d7f351",
      "meta": {
        "profile": [ "https://www.medizininformatik-initiative.de/fhir/ext/modul-onko/StructureDefinition/mii-pr-onko-strahlentherapie-bestrahlung-strahlentherapie" ]
      },
      "identifier": [ {
        "system": "https://bzkf.github.io/obds-to-fhir/identifiers/strahlentherapie-bestrahlung-procedure-id",
        "value": "45900-2"
      } ],
      "partOf": [ {
        "reference": "Procedure/c43a8d5d96caadade444db72b48a3b8f0a1c5e899b0f4796575017e046e92b4e"
      } ],
      "status": "in-progress",
      "category": {
        "coding": [ {
          "system": "http://snomed.info/sct",
          "version": "http://snomed.info/sct/900000000000207008/version/20250501",
          "code": "1287742003",
          "display": "Radiotherapy (procedure)"
        } ]
      },
      "code": {
        "coding": [ {
          "system": "http://fhir.de/CodeSystem/bfarm/ops",
          "version": "2025",
          "code": "8-52",
          "display": "Strahlentherapie"
        } ]
      },
      "subject": {
        "reference": "Patient/6d5d660ab62ed4f79df30257578c3a98eda74f14c6499270e0d2c3c92a5c2dfc"
      },
      "performedPeriod": {
        "_start": {
          "extension": [ {
            "url": "http://hl7.org/fhir/StructureDefinition/data-absent-reason",
            "valueCode": "unknown"
          } ]
        }
      },
      "bodySite": [ {
        "extension": [ {
          "url": "https://www.medizininformatik-initiative.de/fhir/ext/modul-onko/StructureDefinition/mii-ex-onko-strahlentherapie-bestrahlung-seitenlokalisation",
          "valueCodeableConcept": {
            "coding": [ {
              "system": "https://www.medizininformatik-initiative.de/fhir/ext/modul-onko/CodeSystem/mii-cs-onko-seitenlokalisation",
              "code": "R"
            } ]
          }
        } ],
        "coding": [ {
          "system": "https://www.medizininformatik-initiative.de/fhir/ext/modul-onko/CodeSystem/mii-cs-onko-strahlentherapie-zielgebiet",
          "code": "1.2."
        } ]
      } ],
      "usedCode": [ {
        "coding": [ {
          "system": "https://www.medizininformatik-initiative.de/fhir/ext/modul-onko/CodeSystem/mii-cs-onko-strahlentherapie-applikationsart",
          "code": "I"
        } ]
      } ]
    },
    "request": {
      "method": "PUT",
      "url": "Procedure/9a20a96a1096bcaf9af294b01e5c308b0bcaec60a12bd45e3a7cfebb20d7f351"
    }
  }, {
    "fullUrl": "Procedure/10ff7d27d5316c43b790c12089a7cd1c657bebf32a33894f470a0e09350fdef8",
    "resource": {
      "resourceType": "Procedure",
      "id": "10ff7d27d5316c43b790c12089a7cd1c657bebf32a33894f470a0e09350fdef8",
      "meta": {
        "profile": [ "https://www.medizininformatik-initiative.de/fhir/ext/modul-onko/StructureDefinition/mii-pr-onko-strahlentherapie-bestrahlung-nuklearmedizin" ]
      },
      "identifier": [ {
        "system": "https://bzkf.github.io/obds-to-fhir/identifiers/strahlentherapie-bestrahlung-procedure-id",
        "value": "45900-3"
      } ],
      "partOf": [ {
        "reference": "Procedure/c43a8d5d96caadade444db72b48a3b8f0a1c5e899b0f4796575017e046e92b4e"
      } ],
      "status": "in-progress",
      "category": {
        "coding": [ {
          "system": "http://snomed.info/sct",
          "version": "http://snomed.info/sct/900000000000207008/version/20250501",
          "code": "399315003",
          "display": "Radionuclide therapy"
        } ]
      },
      "code": {
        "coding": [ {
          "system": "http://fhir.de/CodeSystem/bfarm/ops",
          "version": "2025",
          "code": "8-53",
          "display": "Nuklearmedizinische Therapie"
        } ]
      },
      "subject": {
        "reference": "Patient/6d5d660ab62ed4f79df30257578c3a98eda74f14c6499270e0d2c3c92a5c2dfc"
      },
      "performedPeriod": {
        "_start": {
          "extension": [ {
            "url": "http://hl7.org/fhir/StructureDefinition/data-absent-reason",
            "valueCode": "unknown"
          } ]
        }
      },
      "bodySite": [ {
        "extension": [ {
          "url": "https://www.medizininformatik-initiative.de/fhir/ext/modul-onko/StructureDefinition/mii-ex-onko-strahlentherapie-bestrahlung-seitenlokalisation",
          "valueCodeableConcept": {
            "coding": [ {
              "system": "https://www.medizininformatik-initiative.de/fhir/ext/modul-onko/CodeSystem/mii-cs-onko-seitenlokalisation",
              "code": "R"
            } ]
          }
        } ],
        "coding": [ {
          "system": "https://www.medizininformatik-initiative.de/fhir/ext/modul-onko/CodeSystem/mii-cs-onko-strahlentherapie-zielgebiet",
          "code": "1.2."
        } ]
      } ],
      "usedCode": [ {
        "coding": [ {
          "system": "https://www.medizininformatik-initiative.de/fhir/ext/modul-onko/CodeSystem/mii-cs-onko-strahlentherapie-applikationsart",
          "code": "M"
        } ]
      } ]
    },
    "request": {
      "method": "PUT",
      "url": "Procedure/10ff7d27d5316c43b790c12089a7cd1c657bebf32a33894f470a0e09350fdef8"
    }
  }, {
    "fullUrl": "AdverseEvent/e528506357bb34cee8abf44c115d2a52b8ddc1bf2cba72f8102b4283cffb3fd3",
    "resource": {
      "resourceType": "AdverseEvent",
      "id": "e528506357bb34cee8abf44c115d2a52b8ddc1bf2cba72f8102b4283cffb3fd3",
      "meta": {
        "profile": [ "https://www.medizininformatik-initiative.de/fhir/ext/modul-onko/StructureDefinition/mii-pr-onko-nebenwirkung-adverse-event" ]
      },
      "identifier": {
        "system": "https://bzkf.github.io/obds-to-fhir/identifiers/nebenwirkung-adverse-event-id",
        "value": "mii-pr-onko-nebenwirkung-45900-0"
      },
      "actuality": "actual",
      "event": {
        "extension": [ {
          "url": "http://hl7.org/fhir/StructureDefinition/data-absent-reason",
          "valueCode": "unknown"
        } ],
        "text": "Sonstige"
      },
      "subject": {
        "reference": "Patient/6d5d660ab62ed4f79df30257578c3a98eda74f14c6499270e0d2c3c92a5c2dfc"
      },
      "seriousness": {
        "coding": [ {
          "system": "https://www.medizininformatik-initiative.de/fhir/ext/modul-onko/CodeSystem/mii-cs-onko-nebenwirkung-ctcae-grad",
          "code": "4"
        } ]
      },
      "suspectEntity": [ {
        "instance": {
          "reference": "Procedure/c43a8d5d96caadade444db72b48a3b8f0a1c5e899b0f4796575017e046e92b4e"
        }
      } ]
    },
    "request": {
      "method": "PUT",
      "url": "AdverseEvent/e528506357bb34cee8abf44c115d2a52b8ddc1bf2cba72f8102b4283cffb3fd3"
    }
  } ]
}